File: Burgel/15453660/Composition_Dataset/ML_11_near-equiatomic_Ir-Pd-Pt-Ru_EDX.csv
Index,Ir,Pd,Pt,Ru
1,54.64,12.6,7.36,25.39
2,53.44,11.75,7.47,27.34
3,50.17,11.41,7.94,30.48
4,48.34,10.28,8.75,32.63
5,46.76,9.59,8.76,34.88
6,44.23,9.0,9.69,37.07
7,41.98,8.11,9.8,40.1
8,39.72,8.01,10.08,42.19
9,37.1,7.54,10.76,44.6
10,35.03,7.12,11.26,46.59
11,32.04,6.21,11.82,49.93
12,55.09,14.33,7.69,22.89
13,53.12,13.85,7.79,25.24
14,50.81,13.22,8.73,27.24
15,48.92,12.36,9.13,29.6
16,46.6,11.64,9.65,32.12
17,44.46,10.91,9.82,34.81
18,42.12,10.22,10.36,37.3
19,40.23,9.35,11.16,39.25
20,37.13,8.96,11.35,42.56
21,35.83,8.02,12.25,43.9
22,34.24,8.03,12.24,45.49
23,31.4,7.36,12.82,48.42
24,29.33,6.91,13.23,50.53
25,55.22,17.03,7.67,20.08
26,53.03,15.86,8.59,22.52
27,50.75,15.55,8.85,24.85
28,48.67,14.48,9.46,27.39
29,46.69,13.69,10.29,29.34
30,44.82,12.82,10.58,31.77
31,42.94,11.94,11.33,33.78
32,40.88,11.16,11.71,36.25
33,38.87,10.8,11.97,38.36
34,37.01,9.97,12.66,40.37
35,35.37,8.94,13.1,42.59
36,32.89,8.15,13.71,45.24
37,29.89,7.57,14.09,48.44
38,28.41,6.85,14.65,50.09
39,25.67,6.07,15.42,52.84
40,53.98,18.93,8.44,18.65
41,51.78,19.2,8.83,20.19
42,50.23,17.87,9.45,22.46
43,48.66,16.89,9.94,24.51
44,46.11,16.31,10.9,26.68
45,44.87,15.29,11.15,28.69
46,43.06,14.28,11.28,31.38
47,40.84,13.5,12.41,33.25
48,39.11,11.86,13.14,35.89
49,37.95,11.28,13.37,37.4
50,35.37,10.68,13.97,39.98
51,33.61,9.74,14.64,42.01
52,31.09,9.35,15.2,44.36
53,28.9,8.75,15.43,46.91
54,27.05,7.17,16.32,49.46
55,25.02,6.89,16.46,51.64
56,22.51,6.22,17.37,53.9
57,54.1,21.83,8.12,15.95
58,52.34,21.63,8.82,17.21
59,50.25,20.49,9.7,19.56
60,48.71,19.41,10.15,21.74
61,45.99,19.14,10.95,23.92
62,45.01,17.77,11.37,25.85
63,43.05,16.58,12.15,28.21
64,41.48,15.54,12.63,30.35
65,39.64,14.15,13.42,32.8
66,37.93,13.5,14.08,34.49
67,36.07,12.59,14.71,36.63
68,34.35,11.39,15.12,39.13
69,32.1,10.6,16.08,41.22
70,29.98,10.27,16.57,43.18
71,28.48,8.38,17.14,46.0
72,25.87,8.41,17.87,47.85
73,23.79,7.38,17.96,50.87
74,21.55,6.66,19.18,52.61
75,18.95,5.75,19.56,55.73
76,50.32,24.6,9.27,15.81
77,49.12,23.29,9.95,17.64
78,47.4,22.51,10.55,19.54
79,45.81,21.51,11.24,21.44
80,44.77,19.67,12.21,23.35
81,42.38,19.7,12.67,25.25
82,40.73,18.89,13.44,26.95
83,39.11,16.91,14.16,29.81
84,37.87,15.94,14.59,31.59
85,36.39,14.53,15.43,33.66
86,34.35,13.09,16.21,36.35
87,32.93,12.29,16.55,38.23
88,31.11,11.42,17.17,40.3
89,29.01,10.53,18.05,42.41
90,27.01,10.19,18.45,44.35
91,24.74,9.23,19.1,46.93
92,23.16,7.49,19.95,49.4
93,20.6,7.71,20.5,51.19
94,17.88,6.91,21.35,53.87
95,48.9,28.56,8.98,13.56
96,47.94,26.8,9.79,15.46
97,46.67,25.5,10.65,17.18
98,45.96,23.91,11.41,18.73
99,43.92,23.44,12.22,20.42
100,41.98,22.46,12.69,22.86
101,40.75,20.89,13.53,24.83
102,39.39,19.22,14.65,26.74
103,37.68,18.78,15.11,28.43
104,36.31,17.61,15.96,30.11
105,34.43,16.23,16.59,32.75
106,33.5,14.67,17.02,34.8
107,30.87,14.04,18.24,36.85
108,29.84,12.3,19.25,38.61
109,27.41,11.59,19.62,41.38
110,25.03,10.94,20.41,43.63
111,24.06,9.51,20.91,45.52
112,22.03,8.21,21.83,47.93
113,19.7,7.13,22.5,50.66
114,17.51,6.91,23.06,52.52
115,16.09,6.55,23.48,53.89
116,47.04,30.0,9.86,13.1
117,45.94,28.88,10.64,14.54
118,43.82,27.82,11.51,16.85
119,42.49,26.97,12.32,18.22
120,41.71,25.3,13.34,19.65
121,40.22,24.24,13.94,21.6
122,38.33,22.74,14.8,24.13
123,37.39,21.36,15.75,25.5
124,36.06,20.09,16.41,27.44
125,34.19,18.8,17.4,29.61
126,33.02,16.96,17.97,32.05
127,31.82,16.16,18.53,33.49
128,30.08,14.45,19.56,35.92
129,28.74,13.7,20.24,37.32
130,27.05,12.11,20.58,40.25
131,24.61,10.75,22.13,42.51
132,23.11,10.13,22.36,44.4
133,19.59,9.27,23.54,47.6
134,18.66,8.07,24.22,49.05
135,16.72,7.54,24.96,50.79
136,14.81,7.08,25.58,52.52
137,44.03,32.38,10.67,12.92
138,42.91,31.06,11.5,14.53
139,42.15,29.95,12.28,15.61
140,40.78,28.25,13.49,17.48
141,39.05,27.33,14.47,19.15
142,37.77,25.64,15.44,21.15
143,37.15,24.51,15.81,22.53
144,36.32,22.59,16.48,24.62
145,34.33,21.66,17.48,26.53
146,32.87,20.44,18.27,28.42
147,31.95,18.21,19.15,30.69
148,29.51,17.3,19.98,33.21
149,28.41,16.05,20.78,34.76
150,26.42,14.38,22.06,37.13
151,24.51,13.32,23.11,39.06
152,22.71,12.42,23.7,41.17
153,21.38,10.3,24.87,43.45
154,19.02,9.67,25.67,45.65
155,17.19,8.72,26.22,47.87
156,15.54,8.45,27.19,48.82
157,14.05,7.13,27.5,51.32
158,41.59,34.07,11.76,12.58
159,41.26,32.89,12.7,13.15
160,39.68,31.94,13.47,14.91
161,38.47,31.12,14.29,16.12
162,37.11,28.56,15.49,18.84
163,36.18,27.84,16.25,19.73
164,35.56,25.59,16.86,21.98
165,33.83,24.49,18.11,23.58
166,32.43,23.65,18.75,25.17
167,31.17,21.67,19.7,27.45
168,29.79,20.24,20.44,29.53
169,28.55,19.31,21.18,30.96
170,27.02,16.71,22.38,33.89
171,25.67,16.01,23.02,35.3
172,23.72,14.27,24.78,37.23
173,21.96,13.3,25.28,39.46
174,20.19,11.45,26.51,41.84
175,17.87,10.63,28.11,43.39
176,16.22,9.55,28.14,46.09
177,15.47,7.73,29.03,47.78
178,13.06,7.51,29.61,49.81
179,38.5,37.73,12.4,11.38
180,38.01,35.36,13.53,13.1
181,37.74,33.84,14.11,14.32
182,36.37,32.41,15.45,15.77
183,35.12,30.79,16.46,17.63
184,33.79,29.23,17.46,19.52
185,33.61,27.28,18.31,20.8
186,32.01,25.79,18.94,23.26
187,30.68,24.75,20.04,24.53
188,29.29,23.17,21.08,26.46
189,28.59,21.68,21.69,28.04
190,26.5,20.28,23.19,30.03
191,24.94,18.94,23.83,32.29
192,23.49,17.36,24.93,34.21
193,22.04,14.97,26.35,36.64
194,20.19,14.0,27.4,38.41
195,18.94,12.96,28.06,40.04
196,16.89,11.4,29.35,42.35
197,15.31,9.92,30.05,44.72
198,14.22,8.74,31.26,45.78
199,12.69,7.92,32.35,47.03
200,36.36,39.17,12.99,11.49
201,34.9,38.01,14.6,12.49
202,34.33,36.49,15.1,14.08
203,33.24,34.97,16.73,15.06
204,32.1,33.38,17.51,17.01
205,31.69,31.27,18.6,18.44
206,31.1,29.78,19.49,19.63
207,29.54,28.44,20.22,21.81
208,29.29,26.22,21.22,23.27
209,27.86,24.97,22.05,25.12
210,26.08,23.38,23.61,26.93
211,24.69,21.84,24.33,29.14
212,23.79,19.14,25.47,31.6
213,22.03,18.85,26.64,32.49
214,20.26,16.26,28.38,35.1
215,18.51,14.86,29.46,37.17
216,17.32,13.2,30.18,39.3
217,15.93,12.06,31.6,40.41
218,14.25,10.31,32.59,42.84
219,12.39,9.53,33.76,44.32
220,11.73,8.26,34.4,45.61
221,32.39,42.78,14.09,10.74
222,32.68,40.57,15.07,11.68
223,32.05,38.26,16.87,12.83
224,30.77,36.37,17.69,15.16
225,29.87,35.33,18.86,15.93
226,29.26,33.63,19.59,17.51
227,28.22,31.93,20.98,18.87
228,27.39,30.15,21.72,20.73
229,26.25,28.15,23.1,22.5
230,25.0,26.83,23.82,24.35
231,24.43,24.63,25.37,25.57
232,23.04,23.2,26.36,27.39
233,20.88,21.63,27.71,29.78
234,19.69,19.61,28.65,32.05
235,18.83,17.96,29.89,33.33
236,16.85,16.33,31.44,35.38
237,15.68,14.18,32.64,37.5
238,14.09,12.53,33.81,39.58
239,13.88,11.0,34.7,40.42
240,12.61,9.88,35.84,41.67
241,10.88,8.71,36.98,43.42
242,29.09,43.2,16.3,11.41
243,28.93,41.14,17.66,12.27
244,28.36,39.66,18.4,13.58
245,27.48,37.44,19.96,15.13
246,27.04,35.59,20.8,16.58
247,26.07,33.97,22.18,17.78
248,24.81,32.16,23.18,19.85
249,24.68,30.4,23.78,21.14
250,23.89,27.98,25.65,22.48
251,22.22,26.14,26.97,24.67
252,21.18,24.86,27.98,25.98
253,19.73,22.59,29.06,28.62
254,18.95,20.19,31.14,29.72
255,16.81,18.74,32.59,31.86
256,16.08,16.38,33.32,34.22
257,15.4,14.91,34.64,35.04
258,13.65,13.16,35.94,37.25
259,12.47,11.44,37.76,38.34
260,11.48,10.39,39.33,38.8
261,26.57,46.4,16.74,10.29
262,25.51,44.55,18.08,11.86
263,25.23,42.04,19.89,12.84
264,24.81,40.01,21.06,14.11
265,24.29,38.1,22.51,15.1
266,23.64,36.1,23.3,16.96
267,22.78,34.28,24.85,18.09
268,21.86,32.65,25.32,20.16
269,21.31,30.34,27.44,20.91
270,19.9,28.61,28.74,22.74
271,19.27,25.72,29.87,25.14
272,17.88,24.18,31.09,26.86
273,17.11,22.28,32.15,28.47
274,15.19,20.24,34.46,30.11
275,14.47,17.78,36.06,31.69
276,13.97,15.48,37.04,33.52
277,12.61,14.2,38.85,34.34
278,10.91,12.44,40.22,36.44
279,10.31,9.9,41.82,37.98
280,23.19,46.59,19.11,11.11
281,22.62,44.56,21.0,11.82
282,22.35,42.03,22.13,13.5
283,21.3,40.92,23.41,14.37
284,21.93,37.52,24.45,16.1
285,20.29,36.32,25.63,17.76
286,20.26,33.94,27.07,18.74
287,18.97,32.32,29.02,19.68
288,18.01,30.27,29.95,21.77
289,17.24,27.74,31.71,23.32
290,15.92,25.82,33.63,24.63
291,15.11,22.64,35.55,26.7
292,14.94,20.27,36.49,28.31
293,13.74,19.01,37.92,29.33
294,12.61,15.54,40.15,31.69
295,11.98,13.97,40.94,33.11
296,10.65,12.52,42.85,33.98
297,20.74,46.43,21.56,11.28
298,20.24,44.42,23.07,12.27
299,19.04,42.26,24.7,14.0
300,18.96,40.01,26.29,14.74
301,18.0,38.34,28.03,15.64
302,17.66,36.57,28.72,17.05
303,17.37,33.56,30.52,18.55
304,16.37,31.67,32.0,19.96
305,15.76,29.06,33.81,21.37
306,14.66,25.84,35.66,23.84
307,13.56,23.69,37.55,25.19
308,13.31,21.69,38.64,26.37
309,12.72,18.75,40.84,27.68
310,12.01,16.47,42.71,28.81
311,10.81,14.82,44.26,30.11
312,17.18,46.92,24.18,11.72
313,17.44,44.39,25.7,12.47
314,16.51,42.5,27.3,13.68
315,16.95,39.97,28.39,14.69
316,16.27,37.32,30.15,16.25
317,15.85,35.98,31.38,16.79
318,15.14,33.16,33.52,18.18
319,14.02,30.38,35.79,19.8
320,13.31,27.7,37.7,21.28
321,13.41,24.63,39.61,22.35
322,12.63,21.55,41.51,24.31
323,11.58,19.36,43.46,25.6
324,11.09,16.69,45.23,26.99
325,15.22,46.41,26.71,11.66
326,15.25,43.81,28.58,12.36
327,14.9,41.84,29.43,13.83
328,14.16,39.1,31.86,14.88
329,13.16,36.61,34.06,16.18
330,13.03,33.56,35.51,17.91
331,13.19,31.08,37.24,18.5
332,12.33,27.78,39.57,20.32
333,11.89,25.34,41.62,21.14
334,11.31,22.38,43.7,22.61
335,10.31,19.38,46.29,24.02
336,12.78,42.92,31.57,12.73
337,12.76,39.67,33.71,13.86
338,11.94,37.49,36.11,14.46
339,13.13,34.16,37.09,15.62
340,11.92,31.78,39.35,16.95
341,11.78,27.77,42.63,17.82
342,10.61,25.37,44.74,19.28