File: Burgel/15453660/Composition_Dataset/ML_10_Ir-rich_Ir-Pd-Pt-Ru_EDX.csv
Index,Ir,Pd,Pt,Ru
1,87.43,1.48,3.83,7.27
2,86.93,1.38,3.88,7.81
3,85.66,1.31,4.12,8.91
4,82.83,1.86,5.27,10.05
5,82.13,1.54,5.48,10.86
6,80.35,1.79,6.1,11.77
7,78.72,1.62,7.07,12.59
8,77.07,1.4,7.41,14.12
9,74.29,1.11,9.03,15.56
10,71.73,0.7,10.33,17.24
11,68.03,1.21,12.17,18.6
12,88.51,1.85,3.54,6.09
13,86.32,2.2,4.21,7.26
14,84.61,2.21,4.68,8.5
15,83.87,2.11,4.97,9.06
16,82.53,1.74,5.74,9.99
17,81.49,1.59,6.42,10.5
18,79.95,1.66,7.14,11.26
19,78.04,1.2,7.84,12.93
20,74.98,1.96,8.67,14.39
21,72.55,1.99,9.5,15.95
22,70.63,1.66,10.72,16.99
23,67.6,1.64,12.18,18.58
24,63.88,1.05,14.5,20.56
25,88.09,1.81,4.07,6.04
26,87.47,1.9,4.48,6.15
27,86.19,1.99,4.69,7.14
28,84.94,1.53,5.52,8.01
29,83.5,1.9,6.06,8.53
30,80.9,2.3,6.58,10.22
31,79.68,1.64,7.79,10.89
32,78.5,1.77,7.81,11.92
33,76.6,1.75,8.68,12.97
34,74.88,1.75,9.43,13.94
35,71.55,2.21,10.98,15.26
36,69.31,1.52,12.29,16.89
37,66.63,1.67,13.3,18.41
38,62.2,1.44,16.1,20.25
39,60.19,1.16,17.12,21.53
40,89.3,2.11,3.76,4.83
41,87.01,2.6,4.17,6.22
42,86.08,2.34,4.91,6.68
43,85.29,2.18,5.32,7.2
44,83.67,1.96,6.02,8.35
45,82.65,2.24,6.43,8.67
46,79.87,2.31,7.78,10.04
47,78.42,2.24,8.64,10.71
48,76.54,2.11,9.08,12.26
49,75.01,2.18,9.81,12.99
50,73.0,2.31,10.89,13.8
51,70.96,2.47,11.58,14.99
52,68.61,2.1,12.83,16.46
53,65.74,2.0,14.55,17.71
54,62.59,1.59,16.24,19.58
55,58.17,1.82,18.03,21.98
56,54.82,1.67,20.63,22.88
57,88.86,2.74,4.09,4.3
58,88.02,2.49,4.38,5.11
59,85.93,2.58,5.14,6.35
60,85.71,2.55,5.64,6.1
61,84.05,2.32,6.21,7.42
62,82.23,2.53,7.04,8.2
63,80.56,2.63,7.61,9.21
64,79.75,2.53,8.31,9.41
65,77.73,2.33,8.99,10.95
66,75.78,2.41,10.35,11.47
67,73.63,2.62,10.91,12.84
68,72.04,2.3,11.89,13.77
69,70.67,2.08,12.86,14.39
70,67.87,1.43,14.33,16.37
71,64.4,1.99,15.9,17.71
72,60.57,1.9,17.87,19.65
73,56.29,2.0,19.84,21.87
74,54.37,2.16,21.66,21.81
75,50.05,1.78,24.23,23.94
76,87.78,3.26,4.28,4.68
77,87.19,2.65,5.05,5.11
78,86.09,2.45,5.51,5.95
79,84.2,2.86,6.26,6.69
80,83.68,2.8,6.79,6.73
81,81.61,2.59,8.01,7.78
82,80.15,2.88,8.36,8.61
83,78.36,2.34,9.84,9.46
84,76.55,2.76,10.45,10.24
85,74.65,2.65,11.06,11.64
86,73.67,2.43,12.24,11.67
87,70.03,3.09,13.6,13.28
88,68.69,2.13,14.24,14.94
89,65.6,2.21,16.2,15.98
90,63.15,2.1,17.77,16.98
91,59.5,1.85,19.47,19.17
92,56.45,2.31,21.17,20.07
93,52.12,1.19,24.03,22.66
94,47.13,1.97,26.79,24.1
95,88.61,3.33,4.19,3.86
96,87.36,2.89,5.01,4.74
97,86.02,3.14,5.55,5.3
98,84.24,3.48,6.58,5.71
99,83.04,3.33,7.28,6.35
100,81.46,3.16,7.74,7.64
101,80.7,2.98,8.68,7.65
102,78.44,3.2,9.57,8.79
103,77.96,2.8,10.47,8.77
104,75.87,2.7,11.53,9.9
105,73.08,2.9,12.35,11.67
106,71.37,2.89,13.51,12.23
107,69.17,2.29,15.04,13.49
108,66.86,2.25,15.98,14.91
109,63.93,2.11,17.7,16.26
110,61.19,1.82,19.49,17.49
111,57.92,1.93,21.3,18.85
112,53.95,2.36,23.29,20.4
113,49.85,2.4,25.75,22.0
114,46.58,1.51,28.38,23.52
115,42.73,1.64,30.46,25.18
116,86.89,3.7,5.05,4.36
117,86.07,3.46,5.87,4.6
118,85.4,3.64,5.88,5.08
119,83.41,3.75,7.07,5.77
120,82.23,3.71,7.47,6.59
121,80.29,3.44,8.59,7.68
122,80.19,2.98,9.53,7.3
123,77.86,3.14,10.59,8.41
124,76.49,3.36,11.47,8.68
125,73.72,3.07,12.5,10.7
126,71.99,3.39,13.54,11.08
127,70.36,2.41,15.32,11.91
128,68.1,3.24,16.11,12.55
129,65.27,3.19,17.64,13.9
130,63.0,3.32,18.88,14.8
131,58.98,2.61,21.37,17.04
132,56.0,2.71,23.3,17.98
133,51.93,2.56,25.37,20.15
134,48.03,2.56,28.03,21.38
135,44.64,1.49,31.12,22.75
136,41.19,2.29,32.81,23.7
137,86.63,4.11,5.19,4.08
138,86.35,3.4,5.96,4.29
139,83.81,4.2,6.54,5.45
140,82.06,3.6,8.39,5.95
141,81.03,3.98,8.65,6.34
142,79.39,3.76,9.89,6.95
143,78.34,3.48,10.59,7.59
144,75.85,4.15,11.69,8.31
145,74.41,3.88,12.68,9.03
146,72.77,3.53,14.27,9.43
147,70.68,3.13,15.34,10.85
148,68.3,3.71,16.09,11.89
149,66.37,2.92,18.0,12.71
150,64.09,2.89,19.4,13.62
151,59.84,3.61,21.54,15.01
152,57.46,2.33,23.53,16.67
153,53.9,2.66,25.43,18.0
154,50.67,2.58,27.29,19.46
155,47.19,2.87,29.51,20.44
156,43.35,2.35,32.46,21.85
157,39.8,1.99,35.33,22.89
158,85.25,4.32,6.36,4.07
159,83.93,4.82,7.22,4.03
160,82.51,4.67,7.8,5.02
161,81.32,4.68,8.51,5.48
162,79.73,3.94,9.88,6.46
163,77.95,4.53,10.95,6.57
164,77.38,3.79,12.17,6.66
165,74.65,4.15,12.95,8.26
166,73.38,3.69,14.37,8.56
167,70.81,3.73,15.42,10.04
168,68.69,3.86,16.67,10.78
169,67.4,4.27,17.89,10.44
170,64.46,3.93,19.87,11.73
171,61.4,3.35,21.6,13.65
172,58.34,3.41,23.53,14.73
173,55.75,3.11,25.48,15.66
174,51.86,3.27,27.98,16.89
175,48.42,2.72,30.32,18.54
176,44.57,3.32,32.32,19.79
177,41.25,3.25,35.06,20.44
178,38.37,1.62,38.25,21.76
179,83.92,4.78,7.03,4.26
180,82.68,4.83,7.46,5.02
181,81.06,4.87,8.9,5.17
182,80.0,4.94,10.01,5.05
183,78.53,4.92,10.98,5.57
184,76.06,4.82,12.56,6.56
185,74.2,5.34,13.18,7.28
186,73.86,4.13,14.36,7.65
187,71.72,4.11,15.35,8.82
188,69.4,4.89,16.77,8.93
189,66.45,4.41,18.73,10.41
190,65.51,3.93,19.5,11.07
191,62.07,3.74,21.57,12.63
192,59.57,3.9,23.53,13.0
193,56.67,3.69,25.38,14.26
194,53.41,3.7,27.08,15.81
195,49.25,3.46,30.16,17.14
196,46.3,3.18,32.75,17.77
197,41.88,2.7,35.83,19.59
198,38.93,2.6,38.21,20.27
199,35.9,2.19,40.28,21.63
200,82.13,5.86,8.21,3.8
201,80.27,6.03,9.59,4.11
202,79.95,5.63,9.85,4.57
203,79.52,4.75,11.24,4.48
204,76.66,5.0,12.28,6.07
205,75.34,4.96,13.5,6.2
206,72.58,5.78,14.62,7.03
207,71.27,5.31,15.72,7.7
208,68.92,4.96,17.22,8.9
209,67.02,5.19,18.33,9.47
210,65.55,4.71,20.23,9.51
211,63.13,4.61,22.09,10.17
212,59.96,5.07,23.58,11.4
213,57.25,3.97,25.67,13.12
214,53.37,3.85,28.83,13.95
215,50.09,3.97,30.47,15.47
216,47.69,3.51,32.69,16.11
217,44.07,2.83,35.37,17.73
218,40.11,3.5,38.23,18.16
219,38.15,2.71,39.91,19.23
220,33.74,1.8,44.12,20.34
221,80.17,6.58,9.1,4.15
222,79.2,6.47,9.92,4.41
223,78.0,5.95,11.24,4.8
224,76.2,5.49,12.55,5.76
225,75.32,5.96,13.19,5.54
226,72.48,5.97,15.14,6.42
227,71.22,5.36,16.38,7.04
228,68.74,6.05,17.74,7.46
229,67.65,4.69,19.21,8.44
230,65.41,4.91,20.53,9.16
231,62.12,5.85,22.28,9.75
232,59.2,5.4,24.75,10.66
233,57.05,5.2,26.18,11.57
234,53.61,4.89,28.45,13.05
235,51.76,4.54,30.53,13.17
236,48.64,4.27,33.03,14.06
237,45.82,3.03,35.22,15.93
238,42.6,3.21,38.27,15.92
239,39.32,3.86,40.85,15.97
240,35.13,2.9,44.39,17.58
241,33.76,2.16,45.7,18.38
242,77.72,7.5,10.86,3.92
243,76.67,6.32,12.53,4.48
244,74.2,6.63,14.27,4.91
245,72.33,6.36,15.32,5.99
246,70.61,6.27,16.8,6.31
247,68.93,6.3,18.42,6.35
248,66.64,6.63,19.67,7.06
249,64.52,6.19,21.34,7.96
250,61.54,6.43,23.05,8.98
251,59.66,5.97,25.07,9.3
252,57.07,5.48,26.66,10.79
253,53.39,5.62,29.78,11.21
254,51.43,4.88,31.65,12.03
255,48.77,4.84,33.63,12.76
256,45.3,5.35,35.75,13.59
257,42.84,3.61,38.78,14.77
258,38.91,3.93,42.18,14.99
259,36.88,3.5,43.68,15.94
260,33.51,2.45,47.55,16.49
261,75.31,7.44,13.09,4.15
262,73.32,7.87,14.15,4.66
263,70.87,7.3,15.93,5.9
264,69.91,7.29,17.29,5.51
265,68.03,7.28,18.43,6.25
266,65.22,7.05,20.85,6.89
267,64.5,6.43,21.96,7.11
268,61.12,6.81,23.2,8.87
269,59.63,6.48,25.51,8.39
270,57.53,5.95,27.17,9.35
271,53.5,6.54,29.56,10.41
272,52.47,5.39,32.08,10.06
273,47.82,6.13,33.91,12.14
274,45.48,5.22,36.81,12.48
275,42.56,5.55,38.69,13.2
276,39.58,4.68,42.22,13.52
277,38.11,3.68,44.76,13.45
278,35.05,2.42,48.16,14.36
279,32.58,3.33,48.53,15.56
280,69.48,9.33,16.13,5.06
281,68.35,8.43,17.61,5.61
282,66.81,8.27,19.47,5.45
283,64.67,8.08,21.21,6.04
284,62.18,8.2,23.41,6.21
285,59.93,8.4,24.31,7.36
286,58.5,7.6,26.48,7.42
287,57.16,7.26,27.96,7.62
288,54.11,6.3,30.28,9.31
289,50.76,7.24,32.14,9.85
290,48.07,6.24,34.75,10.94
291,46.21,5.99,36.63,11.17
292,43.78,5.46,39.6,11.16
293,39.31,5.37,42.74,12.57
294,38.05,4.32,45.34,12.28
295,34.76,4.53,47.09,13.62
296,31.81,4.15,50.3,13.74
297,64.72,10.25,19.86,5.18
298,63.04,9.35,22.08,5.53
299,60.02,9.87,23.67,6.44
300,57.99,9.82,25.39,6.81
301,56.76,8.8,27.42,7.02
302,55.03,8.46,29.48,7.03
303,52.75,8.1,31.12,8.03
304,50.7,7.89,32.65,8.76
305,47.3,7.67,35.07,9.97
306,45.26,6.97,37.38,10.39
307,43.56,6.46,40.01,9.97
308,40.64,5.49,43.03,10.84
309,38.24,5.13,45.09,11.54
310,36.12,4.23,47.76,11.89
311,33.21,4.24,50.58,11.96
312,60.38,10.57,24.56,4.49
313,57.4,10.8,26.32,5.48
314,56.28,9.8,27.54,6.38
315,54.41,9.71,30.11,5.77
316,51.87,8.88,32.59,6.66
317,49.39,8.84,34.01,7.76
318,47.29,8.18,36.02,8.51
319,45.11,7.61,38.75,8.53
320,43.16,7.39,40.97,8.49
321,40.61,6.82,43.51,9.06
322,37.14,6.8,46.64,9.42
323,35.36,5.98,48.7,9.96
324,33.13,5.16,51.29,10.42
325,55.17,11.37,28.1,5.35
326,53.04,10.55,30.92,5.49
327,49.27,10.33,33.48,6.92
328,47.89,9.68,35.47,6.97
329,46.19,9.5,37.06,7.24
330,42.97,9.26,40.72,7.06
331,41.56,8.88,42.4,7.16
332,40.19,7.66,44.57,7.58
333,36.58,7.96,46.13,9.33
334,34.62,6.58,48.95,9.85
335,31.99,6.14,52.05,9.83
336,47.32,11.21,35.05,6.43
337,44.92,11.18,37.88,6.02
338,43.39,10.54,40.32,5.75
339,41.1,9.4,42.57,6.93
340,38.96,9.17,45.02,6.85
341,36.87,8.75,47.1,7.28
342,33.8,7.74,50.17,8.3