File: Burgel/15453660/Composition_Dataset/ML_16_Ru-rich_Cu-Pd-Pt-Ru_EDX.csv
Index,Cu,Pd,Pt,Ru
1,11.37,17.8,6.98,63.84
2,10.46,15.65,7.06,66.83
3,9.19,14.21,7.32,69.27
4,8.65,12.75,7.0,71.6
5,7.6,12.23,6.66,73.5
6,7.39,10.4,7.15,75.06
7,6.31,9.54,6.9,77.25
8,5.44,8.59,7.21,78.76
9,5.49,7.02,6.98,80.5
10,4.42,6.8,7.24,81.54
11,4.25,6.57,6.97,82.21
12,12.02,20.12,8.18,59.68
13,10.77,19.24,7.75,62.24
14,9.01,17.69,7.44,65.86
15,9.27,15.53,7.86,67.34
16,8.24,14.1,7.92,69.74
17,7.49,12.5,7.94,72.07
18,6.92,11.65,7.66,73.77
19,5.77,9.87,8.04,76.32
20,5.1,9.29,8.13,77.49
21,4.72,8.49,8.13,78.66
22,4.37,6.57,8.0,81.06
23,4.38,7.28,7.58,80.75
24,3.23,5.77,7.98,83.02
25,13.02,25.51,7.76,53.7
26,10.81,23.88,8.14,57.17
27,9.94,20.93,8.53,60.61
28,9.11,18.42,8.61,63.86
29,8.02,17.77,8.71,65.5
30,7.4,14.91,8.5,69.19
31,6.75,13.69,8.76,70.8
32,6.63,12.5,9.01,71.86
33,5.29,11.52,8.85,74.33
34,5.63,9.93,9.16,75.28
35,5.06,9.11,9.07,76.75
36,4.27,7.29,9.18,79.26
37,3.58,7.56,8.88,79.99
38,3.33,6.15,8.89,81.63
39,2.91,5.82,8.63,82.63
40,12.84,30.74,8.15,48.27
41,11.3,28.07,9.05,51.58
42,10.31,25.17,8.96,55.56
43,9.22,22.14,9.22,59.42
44,8.77,20.21,9.44,61.58
45,7.55,18.98,9.82,63.65
46,6.76,16.07,10.02,67.15
47,6.73,15.15,9.81,68.31
48,5.97,13.44,9.93,70.66
49,5.49,12.21,9.75,72.54
50,4.52,10.75,10.12,74.61
51,4.33,10.0,10.11,75.56
52,3.86,8.64,10.34,77.16
53,3.78,8.09,9.71,78.43
54,2.39,6.56,10.09,80.96
55,2.69,6.26,10.12,80.93
56,2.99,5.69,9.81,81.51
57,12.84,35.51,8.73,42.93
58,11.58,32.76,9.34,46.32
59,10.02,29.97,10.1,49.92
60,10.43,27.0,9.71,52.86
61,8.38,25.02,9.93,56.67
62,7.96,22.33,10.33,59.38
63,7.85,20.09,10.63,61.43
64,7.08,18.68,10.82,63.42
65,6.2,15.58,10.75,67.46
66,5.34,14.13,11.07,69.45
67,5.01,13.85,11.06,70.08
68,5.17,10.95,11.42,72.47
69,4.27,10.81,11.1,73.82
70,3.59,9.16,11.25,75.99
71,3.42,8.32,11.2,77.07
72,2.9,8.3,10.96,77.84
73,2.26,7.27,11.22,79.25
74,2.48,6.16,10.72,80.64
75,2.11,5.28,10.84,81.77
76,11.4,36.48,9.8,42.32
77,10.48,34.81,10.48,44.24
78,8.97,32.25,10.44,48.34
79,8.94,29.05,10.89,51.12
80,8.14,25.99,10.9,54.98
81,6.85,24.44,11.35,57.36
82,6.75,20.82,11.98,60.46
83,5.81,19.53,11.76,62.91
84,6.06,17.86,11.66,64.42
85,5.38,15.69,12.03,66.9
86,4.53,14.85,11.94,68.68
87,4.66,12.6,11.91,70.83
88,4.22,11.67,12.41,71.7
89,3.34,10.59,12.49,73.58
90,3.62,8.81,12.14,75.44
91,2.82,8.09,12.11,76.98
92,2.4,7.25,12.16,78.19
93,1.69,6.44,12.34,79.53
94,2.0,5.4,11.95,80.64
95,11.4,42.49,9.64,36.48
96,11.82,39.7,9.88,38.6
97,9.76,35.95,11.18,43.12
98,8.23,33.96,11.55,46.26
99,8.66,31.48,11.54,48.32
100,7.5,27.85,12.07,52.59
101,7.28,25.59,11.98,55.15
102,6.5,22.46,12.39,58.65
103,5.52,21.51,12.99,59.97
104,5.72,17.91,13.37,63.01
105,5.05,16.43,12.88,65.64
106,4.26,14.52,13.59,67.63
107,4.56,13.23,13.16,69.04
108,3.26,12.79,13.45,70.5
109,3.39,10.47,13.42,72.72
110,2.96,8.94,13.97,74.14
111,2.79,8.65,13.27,75.29
112,2.3,7.37,13.29,77.04
113,2.0,6.84,13.44,77.72
114,1.41,5.48,13.28,79.83
115,1.74,5.11,12.93,80.22
116,9.79,45.85,10.59,33.77
117,9.73,41.62,11.08,37.57
118,8.39,39.56,11.6,40.46
119,9.27,34.62,12.6,43.51
120,7.58,32.8,12.61,47.02
121,6.97,29.82,13.52,49.7
122,5.98,27.47,13.42,53.13
123,5.92,24.39,13.65,56.05
124,5.35,22.54,13.63,58.48
125,5.12,20.8,13.75,60.33
126,4.42,18.32,14.15,63.11
127,4.26,16.21,14.4,65.12
128,4.59,14.86,14.32,66.23
129,3.62,13.48,14.46,68.44
130,3.45,12.13,14.54,69.88
131,2.53,10.48,14.58,72.42
132,1.83,9.48,14.75,73.94
133,2.19,8.67,14.51,74.62
134,1.83,7.0,14.75,76.43
135,1.62,6.05,14.65,77.68
136,1.01,5.49,14.51,78.99
137,8.56,47.54,11.32,32.58
138,9.88,44.22,11.74,34.16
139,8.76,40.4,12.45,38.39
140,7.81,37.92,12.89,41.38
141,7.02,34.64,13.64,44.7
142,6.53,31.97,13.79,47.71
143,5.91,28.72,14.5,50.86
144,5.62,25.78,14.79,53.8
145,5.09,23.4,14.94,56.56
146,4.57,20.59,15.3,59.54
147,3.75,19.55,14.89,61.8
148,3.98,18.0,15.39,62.63
149,3.09,15.35,15.59,65.98
150,3.58,13.57,15.75,67.11
151,2.39,12.01,15.61,69.99
152,3.19,10.81,16.04,69.96
153,2.38,9.89,15.78,71.95
154,1.97,9.33,15.64,73.06
155,2.12,7.41,15.91,74.56
156,1.44,7.29,15.8,75.47
157,1.4,5.63,15.77,77.2
158,8.51,49.52,11.8,30.17
159,8.67,45.83,12.24,33.25
160,7.78,42.49,13.03,36.7
161,7.62,39.46,13.98,38.94
162,6.68,36.03,14.51,42.78
163,6.08,33.29,15.23,45.39
164,5.54,30.76,15.41,48.28
165,5.15,27.71,15.83,51.31
166,4.47,25.7,15.92,53.91
167,4.22,22.96,15.95,56.87
168,3.76,21.05,16.36,58.82
169,3.38,17.75,16.99,61.88
170,3.21,16.85,16.93,63.02
171,2.65,15.08,16.94,65.33
172,1.9,13.47,17.39,67.24
173,2.51,11.7,17.2,68.59
174,2.42,10.57,16.98,70.03
175,1.94,8.98,16.92,72.16
176,1.52,8.02,17.18,73.28
177,2.0,7.04,17.39,73.57
178,2.45,6.21,16.86,74.48
179,7.04,51.67,12.56,28.73
180,6.84,47.45,13.33,32.38
181,7.11,44.62,13.66,34.6
182,7.16,40.52,14.91,37.42
183,6.09,38.12,15.98,39.81
184,5.12,34.39,16.54,43.95
185,4.71,32.07,16.44,46.78
186,5.46,29.37,16.6,48.57
187,4.03,27.71,17.18,51.08
188,3.69,24.33,17.27,54.71
189,3.95,21.96,17.51,56.58
190,3.77,19.44,17.88,58.92
191,3.33,17.99,18.2,60.47
192,3.0,16.14,18.11,62.75
193,2.65,13.98,18.85,64.51
194,2.52,12.17,18.53,66.78
195,1.96,10.69,18.52,68.83
196,1.39,9.44,18.96,70.21
197,1.75,8.91,18.67,70.67
198,0.96,8.0,19.04,72.0
199,1.36,6.84,18.63,73.17
200,6.45,52.8,12.89,27.87
201,6.64,48.63,13.99,30.74
202,7.44,46.8,14.56,31.2
203,6.94,43.39,16.46,33.21
204,5.97,39.53,16.85,37.65
205,4.54,36.68,17.64,41.15
206,4.37,33.85,17.91,43.86
207,4.4,31.04,18.44,46.12
208,3.71,28.03,18.88,49.37
209,4.37,25.69,18.65,51.29
210,2.16,23.27,19.65,54.91
211,3.04,20.32,19.65,56.98
212,2.84,19.07,19.67,58.42
213,2.82,16.02,19.92,61.24
214,1.5,15.47,20.22,62.81
215,2.18,13.38,20.32,64.12
216,2.41,10.94,20.56,66.09
217,2.0,9.71,20.64,67.66
218,0.9,9.45,20.42,69.23
219,1.66,7.6,20.67,70.08
220,0.0,7.25,20.89,71.86
221,6.63,54.85,13.83,24.69
222,6.59,51.14,14.06,28.21
223,5.06,48.86,15.99,30.1
224,5.54,44.42,17.15,32.88
225,4.44,42.71,18.04,34.81
226,4.26,38.22,18.72,38.8
227,4.44,35.41,19.15,41.0
228,3.43,33.56,19.44,43.57
229,3.82,29.08,20.4,46.7
230,3.39,27.12,20.08,49.41
231,2.84,24.03,20.7,52.42
232,2.81,22.4,20.88,53.91
233,2.49,20.24,21.24,56.03
234,2.0,17.75,21.74,58.52
235,2.17,15.14,22.27,60.42
236,1.81,14.51,21.6,62.07
237,1.96,11.83,22.09,64.13
238,1.71,10.75,22.28,65.25
239,1.94,9.29,22.03,66.74
240,1.27,8.6,22.62,67.51
241,1.01,6.58,23.15,69.26
242,4.88,52.0,15.62,27.51
243,4.12,51.94,16.65,27.29
244,4.82,46.14,18.13,30.91
245,3.73,43.96,18.95,33.36
246,3.61,40.64,19.45,36.3
247,3.33,37.61,20.38,38.68
248,3.01,34.76,21.11,41.13
249,3.07,31.72,21.24,43.98
250,2.35,29.24,21.93,46.48
251,2.8,25.8,22.44,48.96
252,1.7,23.59,22.58,52.13
253,2.35,20.59,23.18,53.88
254,2.22,19.04,23.15,55.59
255,1.62,16.5,23.94,57.95
256,1.97,14.86,23.85,59.31
257,1.64,12.45,24.62,61.29
258,1.1,11.31,24.54,63.05
259,1.31,9.98,25.05,63.67
260,0.0,8.64,25.44,65.91
261,5.06,55.06,15.75,24.13
262,4.38,51.05,17.52,27.04
263,4.46,47.73,18.88,28.92
264,3.11,45.64,20.17,31.08
265,3.7,41.98,20.44,33.88
266,3.53,39.37,21.06,36.04
267,3.4,36.36,22.47,37.78
268,2.58,34.33,23.11,39.98
269,3.06,30.37,23.47,43.1
270,2.17,27.77,23.77,46.29
271,2.52,25.48,24.41,47.59
272,2.52,22.72,24.83,49.92
273,2.41,19.66,25.14,52.78
274,1.24,17.67,26.44,54.65
275,1.62,15.05,26.42,56.91
276,1.7,13.04,26.92,58.34
277,2.14,11.72,27.23,58.9
278,1.57,10.34,27.13,60.95
279,1.38,9.32,27.1,62.19
280,3.92,53.66,18.38,24.04
281,3.01,50.45,20.18,26.36
282,3.26,47.63,20.87,28.24
283,2.46,43.89,22.42,31.24
284,4.35,40.24,22.23,33.17
285,2.72,38.42,23.56,35.3
286,2.96,34.38,24.32,38.33
287,3.15,30.97,25.29,40.59
288,2.8,28.31,26.09,42.79
289,1.86,26.58,26.52,45.05
290,2.15,23.31,27.0,47.55
291,2.29,20.19,27.88,49.65
292,1.45,17.99,28.81,51.75
293,2.03,16.06,28.91,53.0
294,1.13,13.65,29.82,55.4
295,2.01,11.67,29.64,56.68
296,0.0,10.68,30.61,58.72
297,3.42,51.92,20.12,24.54
298,3.89,47.69,22.02,26.4
299,2.84,45.37,22.87,28.92
300,3.35,42.27,24.02,30.36
301,2.33,39.43,25.19,33.06
302,2.78,36.18,26.26,34.79
303,1.94,32.41,27.36,38.29
304,1.96,30.08,28.18,39.77
305,2.15,27.51,28.05,42.28
306,2.11,24.08,29.59,44.22
307,2.07,20.9,30.55,46.48
308,1.18,19.08,31.16,48.58
309,1.39,16.95,31.46,50.2
310,1.81,14.23,31.83,52.14
311,1.84,13.1,32.33,52.73
312,2.75,50.08,22.83,24.33
313,2.31,47.61,24.2,25.88
314,2.1,44.69,25.37,27.84
315,1.97,41.27,26.56,30.2
316,2.33,36.82,27.56,33.29
317,2.45,34.01,28.83,34.7
318,2.33,31.56,29.69,36.42
319,1.45,28.58,30.76,39.21
320,2.17,25.4,31.97,40.46
321,2.26,22.81,31.77,43.17
322,1.29,20.22,33.48,45.01
323,2.29,17.59,34.35,45.78
324,2.7,15.09,34.58,47.63
325,2.56,48.84,25.08,23.51
326,2.13,45.16,26.97,25.74
327,1.51,42.59,27.46,28.44
328,2.22,37.97,29.64,30.18
329,1.78,35.78,31.03,31.4
330,1.85,33.4,30.56,34.19
331,1.7,28.71,32.89,36.7
332,2.31,25.86,34.31,37.53
333,2.12,23.57,35.1,39.21
334,0.0,20.59,36.15,43.26
335,0.0,17.89,38.46,43.65
336,1.9,43.53,29.27,25.31
337,2.01,40.08,30.6,27.31
338,2.03,37.22,31.2,29.55
339,1.34,33.54,33.78,31.33
340,2.34,30.31,35.16,32.19
341,0.0,27.89,36.48,35.62
342,0.0,24.62,37.54,37.85