File: Burgel/15453660/Composition_Dataset/ML_12_Pt-rich_Cu-Pd-Pt-Ru_EDX.csv
Index,Cu,Pd,Pt,Ru
1,11.32,18.61,56.17,13.9
2,11.15,17.13,58.1,13.62
3,9.33,16.4,59.63,14.64
4,8.13,14.27,62.67,14.93
5,8.91,11.47,62.75,16.86
6,8.09,10.89,64.0,17.02
7,6.6,10.63,63.85,18.92
8,6.59,8.29,67.4,17.72
9,4.81,8.26,67.52,19.41
10,5.47,7.69,67.09,19.75
11,3.68,7.43,68.51,20.38
12,11.15,21.56,55.94,11.35
13,10.51,19.12,58.56,11.81
14,10.18,18.39,58.75,12.68
15,8.56,15.72,61.48,14.24
16,7.82,16.34,60.65,15.18
17,7.83,13.97,63.12,15.08
18,7.36,11.1,64.92,16.62
19,6.42,11.33,66.02,16.23
20,6.1,9.94,67.79,16.18
21,5.46,9.17,67.7,17.67
22,4.97,7.32,69.87,17.85
23,4.24,7.26,69.27,19.23
24,4.63,6.11,69.53,19.73
25,10.96,23.9,55.68,9.46
26,10.48,22.49,56.63,10.39
27,9.26,20.68,59.3,10.76
28,9.53,18.75,60.19,11.54
29,7.68,17.48,62.12,12.72
30,7.36,15.33,64.08,13.23
31,7.01,12.46,66.97,13.56
32,5.8,12.5,66.97,14.73
33,5.53,11.07,68.51,14.89
34,5.18,10.01,69.23,15.59
35,4.6,8.58,71.12,15.69
36,4.68,8.3,70.04,16.98
37,3.65,7.87,70.83,17.65
38,3.02,7.64,71.74,17.61
39,3.46,4.92,72.22,19.4
40,11.27,25.98,54.15,8.6
41,9.96,24.27,57.51,8.27
42,8.61,22.62,59.26,9.51
43,8.24,20.79,61.2,9.77
44,8.54,18.69,61.55,11.21
45,7.52,17.9,63.23,11.35
46,6.57,15.46,65.78,12.2
47,6.62,12.96,65.84,14.58
48,5.63,13.2,68.66,12.51
49,4.66,12.27,68.53,14.55
50,4.13,10.81,70.38,14.69
51,3.65,8.58,72.81,14.96
52,4.42,8.56,71.42,15.6
53,3.11,7.58,73.62,15.69
54,2.71,7.46,73.1,16.72
55,3.57,6.0,73.45,16.97
56,2.62,4.88,74.78,17.72
57,9.55,30.91,52.17,7.37
58,9.22,28.43,55.33,7.02
59,8.37,24.7,59.27,7.66
60,7.84,23.09,59.76,9.31
61,6.14,21.61,62.34,9.91
62,6.74,20.0,63.7,9.56
63,6.34,17.98,64.41,11.27
64,6.03,14.71,68.61,10.65
65,5.64,14.19,68.12,12.06
66,4.95,12.99,69.21,12.85
67,5.54,10.24,70.74,13.48
68,3.65,10.37,71.92,14.06
69,3.19,9.27,71.81,15.73
70,3.13,8.7,73.54,14.63
71,3.17,7.48,74.38,14.97
72,2.59,5.91,74.68,16.82
73,2.29,6.23,75.74,15.74
74,2.7,4.28,76.53,16.49
75,1.93,5.64,76.29,16.13
76,7.93,31.3,54.58,6.19
77,7.86,27.76,57.83,6.55
78,7.07,25.81,59.09,8.03
79,6.75,23.9,61.92,7.44
80,5.32,22.21,63.19,9.27
81,6.0,20.01,64.49,9.5
82,5.48,17.74,66.39,10.38
83,4.86,16.15,68.9,10.09
84,4.52,14.85,68.84,11.78
85,3.23,13.23,70.84,12.7
86,3.33,11.73,72.61,12.34
87,3.63,10.65,72.96,12.77
88,3.83,9.32,72.88,13.97
89,3.24,8.27,74.55,13.93
90,3.48,7.23,75.71,13.58
91,1.84,7.0,77.08,14.08
92,2.6,4.42,77.7,15.28
93,1.97,4.34,78.26,15.43
94,2.24,4.15,75.94,17.67
95,8.35,33.57,52.78,5.3
96,7.89,30.39,56.23,5.49
97,6.79,28.31,59.02,5.87
98,5.13,26.35,61.51,7.01
99,5.72,23.95,63.04,7.29
100,6.08,22.33,63.85,7.75
101,4.88,20.14,65.26,9.71
102,5.45,18.73,66.65,9.17
103,4.2,16.71,68.97,10.12
104,3.1,14.58,71.36,10.96
105,3.7,13.59,71.82,10.9
106,2.99,12.82,73.1,11.09
107,3.81,11.21,73.53,11.45
108,2.79,10.09,74.05,13.08
109,3.25,8.54,75.68,12.53
110,2.35,7.21,76.06,14.38
111,2.56,6.46,77.33,13.66
112,2.31,5.73,78.04,13.92
113,2.01,5.02,78.06,14.91
114,1.27,4.81,79.67,14.25
115,,,,
116,6.41,34.84,53.98,4.77
117,6.1,31.94,56.71,5.25
118,6.92,28.2,59.33,5.55
119,5.34,27.5,61.42,5.74
120,4.99,24.45,63.68,6.88
121,5.29,23.05,64.54,7.12
122,4.93,20.31,66.67,8.1
123,4.0,18.41,68.57,9.02
124,3.69,16.85,69.72,9.73
125,4.37,15.85,70.14,9.63
126,2.81,14.26,72.47,10.46
127,2.93,13.24,72.79,11.05
128,2.54,11.61,74.31,11.54
129,2.8,9.5,76.21,11.5
130,2.19,9.21,77.08,11.52
131,2.4,7.29,78.09,12.22
132,2.3,5.5,79.28,12.92
133,1.95,5.4,79.39,13.27
134,1.73,5.77,79.31,13.18
135,1.87,4.9,80.01,13.21
136,2.07,3.55,80.45,13.93
137,7.07,34.02,54.64,4.27
138,5.65,31.34,57.3,5.71
139,5.83,28.66,60.39,5.12
140,4.29,28.07,62.21,5.44
141,5.39,23.55,63.59,7.48
142,5.1,22.18,65.96,6.76
143,3.24,21.28,67.96,7.52
144,4.01,19.24,69.75,6.99
145,4.36,16.24,71.53,7.87
146,3.83,15.38,72.09,8.69
147,2.58,13.97,73.69,9.76
148,3.04,11.53,74.64,10.8
149,2.3,11.28,75.47,10.95
150,1.39,10.46,77.27,10.88
151,1.89,8.69,78.38,11.04
152,2.33,7.62,78.48,11.58
153,1.6,5.66,80.93,11.81
154,1.71,5.96,79.31,13.02
155,1.27,5.22,81.43,12.08
156,1.27,4.64,81.66,12.44
157,0.0,4.03,82.72,13.25
158,5.71,34.31,56.05,3.94
159,4.92,31.09,58.59,5.4
160,3.79,29.58,62.01,4.62
161,4.65,27.33,62.22,5.8
162,4.78,24.07,66.2,4.95
163,3.66,23.3,66.59,6.45
164,4.23,20.69,67.69,7.38
165,3.24,19.53,70.33,6.9
166,3.42,16.56,72.33,7.69
167,2.11,16.13,73.86,7.89
168,2.22,13.7,75.15,8.93
169,2.45,13.23,75.79,8.53
170,2.24,11.3,77.91,8.55
171,1.29,10.27,78.82,9.61
172,2.01,8.63,79.2,10.16
173,1.68,7.67,80.66,9.98
174,1.52,6.26,81.71,10.51
175,1.17,5.95,81.73,11.16
176,0.0,5.56,82.77,11.67
177,0.0,4.28,83.31,12.42
178,1.78,4.25,81.99,11.98
179,6.25,33.95,55.84,3.96
180,4.57,31.83,59.77,3.83
181,3.26,29.24,62.94,4.55
182,3.57,26.73,64.33,5.37
183,3.54,25.53,65.93,5.0
184,3.62,23.04,67.35,6.0
185,3.11,20.43,70.45,6.01
186,3.72,19.29,70.79,6.2
187,2.46,17.09,72.88,7.57
188,2.91,15.53,73.71,7.84
189,1.97,14.27,75.78,7.98
190,1.36,13.14,76.36,9.14
191,2.47,11.77,77.23,8.53
192,1.06,10.45,79.62,8.87
193,1.34,8.28,80.86,9.52
194,1.97,7.42,81.07,9.54
195,0.0,6.23,83.98,9.79
196,1.19,5.53,83.18,10.1
197,0.0,4.58,84.15,11.27
198,0.0,3.75,84.93,11.32
199,0.0,4.23,83.78,11.99
200,3.93,34.5,57.46,4.11
201,3.92,31.51,60.97,3.6
202,3.89,28.45,62.87,4.79
203,3.71,27.52,65.14,3.62
204,2.99,24.6,67.98,4.44
205,2.83,23.58,68.59,4.99
206,3.09,20.32,71.14,5.46
207,2.87,19.25,71.33,6.54
208,2.55,17.39,73.71,6.35
209,1.56,16.16,74.44,7.84
210,2.45,13.79,75.87,7.89
211,2.14,12.63,78.01,7.22
212,1.36,12.05,79.06,7.52
213,1.45,9.66,80.99,7.89
214,1.61,8.58,80.65,9.16
215,0.0,7.52,83.43,9.05
216,1.22,6.28,83.14,9.36
217,1.47,6.14,82.98,9.41
218,0.0,4.76,85.45,9.79
219,0.0,4.36,85.48,10.16
220,0.0,3.57,85.61,10.82
221,3.55,35.6,58.43,2.42
222,3.09,31.87,61.22,3.82
223,2.58,29.76,63.18,4.48
224,2.28,27.1,66.18,4.44
225,2.34,24.55,68.36,4.75
226,2.74,21.89,70.54,4.83
227,2.06,21.14,71.57,5.23
228,2.38,18.89,73.26,5.47
229,1.88,17.8,74.97,5.35
230,2.06,15.71,76.03,6.2
231,1.6,13.38,78.33,6.69
232,1.86,12.82,77.75,7.57
233,1.25,10.65,80.23,7.88
234,1.29,10.33,81.22,7.15
235,1.34,8.84,82.13,7.68
236,0.0,6.76,84.72,8.51
237,0.0,6.81,84.54,8.65
238,1.1,5.36,85.03,8.51
239,0.0,4.56,86.8,8.64
240,1.09,4.35,85.47,9.09
241,1.74,3.18,86.99,8.1
242,2.27,33.08,61.88,2.77
243,2.78,29.59,64.07,3.57
244,2.41,26.71,67.02,3.87
245,2.81,24.57,68.22,4.4
246,2.04,23.68,70.57,3.71
247,2.17,20.82,71.77,5.24
248,2.03,19.03,74.48,4.46
249,2.62,16.92,75.41,5.06
250,1.99,15.35,76.92,5.75
251,1.22,14.03,78.78,5.97
252,1.24,13.28,79.39,6.09
253,0.0,10.65,82.95,6.4
254,1.07,8.96,83.2,6.77
255,0.0,8.53,83.83,7.64
256,0.0,6.9,85.83,7.27
257,0.0,6.18,86.21,7.61
258,1.29,5.3,85.5,7.92
259,1.54,4.81,85.81,7.85
260,0.0,4.01,87.03,8.96
261,2.8,31.91,62.14,3.14
262,1.88,29.6,64.88,3.64
263,2.05,27.26,67.36,3.33
264,1.34,24.38,71.13,3.15
265,1.6,22.36,71.82,4.21
266,2.09,21.14,72.41,4.36
267,2.32,18.73,75.1,3.85
268,1.47,17.39,76.41,4.72
269,1.63,15.59,77.09,5.7
270,1.36,14.2,79.2,5.23
271,1.44,12.58,80.74,5.25
272,1.25,10.9,81.77,6.08
273,0.0,9.58,84.45,5.96
274,0.0,8.14,85.08,6.78
275,1.12,6.76,85.71,6.41
276,0.0,6.9,87.04,6.06
277,0.0,5.72,86.89,7.4
278,0.0,4.55,88.75,6.7
279,0.0,3.68,89.69,6.64
280,2.11,28.94,65.71,3.24
281,1.4,27.05,69.01,2.54
282,1.16,23.95,72.3,2.59
283,1.96,22.8,72.17,3.08
284,1.51,20.23,74.12,4.13
285,0.0,18.95,77.08,3.97
286,2.18,16.52,77.36,3.94
287,1.09,14.61,79.63,4.67
288,0.0,13.48,81.55,4.97
289,0.0,12.31,82.42,5.28
290,0.0,10.84,83.83,5.33
291,0.0,9.21,85.35,5.45
292,0.0,7.85,86.71,5.44
293,0.0,6.74,87.44,5.82
294,0.0,5.81,87.99,6.2
295,0.0,5.09,89.34,5.57
296,0.0,4.41,89.81,5.79
297,1.77,27.01,68.78,2.44
298,1.87,24.53,70.77,2.83
299,1.32,22.48,73.5,2.7
300,1.81,20.7,74.21,3.27
301,0.0,19.18,77.48,3.34
302,1.64,17.05,77.67,3.64
303,1.9,15.25,78.79,4.06
304,1.23,13.3,81.44,4.03
305,1.08,11.54,83.32,4.07
306,1.05,10.66,83.23,5.05
307,0.0,9.62,84.99,5.38
308,0.0,7.86,86.85,5.28
309,0.0,7.31,86.99,5.7
310,1.14,6.42,87.39,5.04
311,0.0,5.15,89.77,5.07
312,0.0,24.4,72.97,2.63
313,1.44,22.5,73.43,2.63
314,1.71,19.94,75.85,2.5
315,1.57,17.97,77.44,3.02
316,0.0,17.4,79.39,3.21
317,0.0,15.07,81.42,3.51
318,0.0,12.99,83.23,3.78
319,1.13,11.39,83.62,3.87
320,1.39,9.88,84.37,4.36
321,0.0,8.95,87.68,3.37
322,0.0,7.36,88.1,4.54
323,0.0,6.69,88.85,4.46
324,0.0,4.92,90.08,5.0
325,0.0,22.45,74.67,2.87
326,0.0,20.53,76.18,3.29
327,1.2,17.96,78.34,2.5
328,0.0,17.25,80.52,2.23
329,0.0,16.02,81.0,2.98
330,0.0,13.32,83.56,3.12
331,0.0,11.45,84.66,3.89
332,0.0,9.97,86.54,3.48
333,0.0,8.71,87.93,3.36
334,0.0,6.64,89.67,3.68
335,0.0,6.14,89.53,4.33
336,0.0,17.79,80.17,2.05
337,0.0,16.17,81.57,2.26
338,1.38,14.63,80.72,3.27
339,0.0,12.6,84.43,2.97
340,0.0,11.26,85.89,2.85
341,0.0,9.83,87.03,3.14
342,1.07,8.13,87.65,3.16