File: Burgel/15453660/Composition_Dataset/ML_13_Cu-rich_Cu-Pd-Pt-Ru_EDX.csv
Index,Cu,Pd,Pt,Ru
1,86.01,5.62,2.1,6.27
2,84.76,5.64,2.36,7.24
3,83.8,5.39,2.62,8.19
4,82.77,5.38,2.75,9.09
5,81.05,5.22,3.35,10.38
6,79.73,5.13,3.46,11.68
7,78.24,5.08,3.8,12.88
8,76.38,4.88,4.38,14.36
9,74.77,4.64,4.47,16.11
10,72.52,4.76,5.12,17.61
11,69.64,4.57,5.66,20.13
12,85.47,6.85,2.17,5.52
13,84.56,6.56,2.32,6.56
14,83.39,6.71,2.64,7.26
15,82.79,6.22,2.85,8.13
16,81.52,5.87,3.21,9.4
17,80.01,6.14,3.53,10.32
18,78.5,5.71,4.1,11.69
19,77.21,5.55,4.4,12.84
20,75.47,5.28,4.68,14.57
21,73.62,4.96,5.29,16.14
22,70.53,4.91,6.03,18.53
23,68.35,4.98,6.51,20.16
24,65.39,4.67,7.16,22.78
25,85.1,7.95,2.16,4.79
26,84.14,7.6,2.5,5.76
27,83.28,7.49,2.59,6.65
28,82.27,7.31,2.97,7.45
29,81.27,7.33,3.31,8.09
30,79.82,6.79,3.66,9.73
31,78.46,6.78,4.13,10.63
32,77.38,6.33,4.61,11.68
33,75.91,6.37,5.01,12.71
34,73.87,6.16,5.51,14.46
35,71.66,5.72,6.2,16.42
36,69.6,5.6,6.66,18.14
37,66.67,5.63,7.57,20.13
38,63.62,6.02,8.01,22.36
39,60.72,5.47,8.9,24.91
40,84.31,9.13,2.13,4.43
41,84.22,8.67,2.31,4.8
42,82.4,9.18,2.74,5.68
43,81.6,8.57,3.13,6.7
44,80.51,8.32,3.45,7.72
45,79.38,8.24,3.71,8.67
46,78.01,8.07,4.36,9.56
47,77.09,7.66,4.64,10.61
48,75.79,6.99,5.27,11.95
49,73.85,7.26,5.61,13.28
50,71.96,7.28,6.45,14.31
51,69.72,6.72,7.14,16.42
52,67.01,7.14,7.82,18.03
53,65.35,5.9,8.34,20.4
54,62.46,6.26,9.17,22.11
55,58.83,6.04,9.95,25.18
56,55.47,6.18,10.93,27.42
57,83.69,10.4,2.27,3.63
58,82.7,10.42,2.53,4.35
59,82.1,10.11,2.81,4.97
60,80.96,10.0,3.05,5.99
61,79.83,9.78,3.59,6.8
62,79.12,9.41,3.97,7.5
63,77.9,9.15,4.51,8.45
64,76.16,9.11,4.95,9.78
65,75.09,8.65,5.46,10.8
66,73.52,8.73,5.99,11.76
67,71.74,8.1,6.83,13.34
68,70.14,7.86,7.14,14.87
69,68.1,7.62,8.0,16.28
70,65.59,6.97,8.85,18.59
71,62.59,6.76,9.55,21.09
72,59.68,7.01,10.39,22.92
73,56.54,7.06,11.21,25.18
74,54.24,5.93,12.21,27.62
75,50.62,5.69,13.26,30.43
76,81.4,12.11,2.59,3.91
77,80.7,11.94,2.99,4.38
78,80.02,11.5,3.26,5.21
79,79.0,11.42,3.76,5.81
80,78.08,10.94,4.15,6.83
81,76.77,10.87,4.47,7.89
82,75.75,10.65,5.12,8.48
83,74.81,9.69,5.4,10.1
84,73.09,9.7,6.14,11.06
85,71.6,9.27,6.62,12.51
86,70.01,9.04,7.39,13.56
87,68.05,9.13,8.12,14.7
88,66.08,8.31,8.7,16.92
89,63.6,7.8,9.76,18.84
90,61.38,7.31,10.57,20.74
91,57.48,7.87,11.75,22.91
92,54.62,6.92,12.79,25.67
93,51.56,7.04,13.5,27.9
94,48.35,6.68,14.56,30.41
95,79.97,14.12,2.65,3.26
96,79.56,13.58,2.82,4.04
97,78.76,13.35,3.23,4.66
98,77.88,13.06,3.82,5.24
99,77.24,12.8,4.24,5.73
100,76.23,12.52,4.54,6.72
101,75.32,11.8,5.12,7.76
102,73.46,12.26,5.59,8.7
103,73.0,11.14,6.38,9.48
104,71.13,11.25,6.68,10.95
105,69.65,10.76,7.6,12.0
106,67.6,10.26,8.48,13.65
107,65.79,10.06,9.27,14.88
108,63.92,9.33,9.85,16.91
109,61.32,9.01,11.12,18.55
110,58.64,8.8,11.76,20.8
111,55.39,8.56,13.24,22.81
112,52.02,8.16,14.26,25.56
113,49.35,7.65,15.43,27.58
114,45.92,7.75,16.37,29.95
115,,,,
116,77.89,15.58,2.95,3.58
117,77.9,14.86,3.23,4.01
118,76.59,14.9,3.78,4.73
119,75.92,14.51,4.37,5.2
120,75.5,14.06,4.7,5.75
121,73.93,14.07,5.21,6.79
122,72.52,13.75,5.83,7.9
123,72.03,13.11,6.33,8.53
124,70.03,12.65,7.08,10.25
125,68.97,12.27,7.81,10.95
126,67.03,11.66,8.7,12.61
127,65.36,11.2,9.48,13.96
128,63.65,11.31,10.09,14.94
129,61.18,10.68,11.1,17.03
130,58.76,10.51,11.93,18.8
131,56.13,9.45,13.34,21.08
132,53.82,9.0,14.5,22.68
133,49.46,9.04,15.77,25.72
134,47.45,7.75,17.44,27.36
135,44.13,7.5,18.47,29.9
136,41.89,7.2,19.16,31.75
137,75.37,17.66,3.39,3.58
138,75.1,16.95,3.88,4.07
139,74.96,16.31,4.2,4.54
140,73.8,16.41,4.58,5.21
141,72.09,16.46,5.53,5.91
142,71.55,15.77,6.03,6.65
143,70.73,14.92,6.71,7.63
144,69.08,14.86,7.34,8.72
145,67.62,14.6,7.93,9.86
146,66.85,13.64,8.66,10.85
147,64.84,13.45,9.73,11.98
148,61.9,13.2,10.76,14.14
149,60.9,12.4,11.38,15.32
150,58.02,11.66,12.92,17.4
151,55.68,11.29,13.91,19.12
152,53.51,11.05,15.17,20.27
153,49.98,10.31,16.5,23.22
154,46.72,9.83,17.8,25.64
155,44.48,9.3,18.8,27.42
156,41.26,7.92,20.66,30.16
157,39.5,7.67,21.18,31.66
158,72.5,19.74,4.03,3.73
159,72.22,19.47,4.55,3.76
160,71.57,18.75,4.97,4.71
161,70.9,18.42,5.53,5.15
162,70.21,17.68,6.22,5.89
163,68.98,17.41,6.8,6.8
164,67.52,17.21,7.52,7.74
165,66.85,16.41,8.08,8.66
166,65.64,15.92,8.81,9.64
167,63.26,15.4,9.92,11.43
168,61.96,14.82,10.65,12.57
169,60.05,14.05,11.94,13.96
170,57.81,13.67,12.86,15.65
171,55.69,12.82,14.15,17.34
172,53.5,12.63,14.93,18.95
173,51.01,11.38,16.87,20.74
174,47.45,10.86,18.11,23.58
175,45.25,10.34,19.57,24.85
176,42.45,9.71,20.62,27.21
177,39.86,8.94,22.36,28.84
178,37.39,8.06,23.68,30.87
179,70.23,21.75,4.48,3.54
180,69.57,21.3,5.06,4.07
181,68.66,20.97,5.56,4.81
182,68.51,20.11,6.2,5.17
183,67.12,19.91,7.0,5.97
184,66.07,19.31,7.55,7.06
185,64.93,18.93,8.38,7.76
186,64.38,17.74,9.19,8.68
187,62.54,17.51,10.15,9.79
188,60.92,17.13,11.07,10.88
189,58.98,16.59,12.0,12.42
190,57.43,15.8,13.18,13.59
191,55.83,15.67,14.2,14.3
192,52.5,14.26,15.93,17.31
193,50.17,14.2,16.62,19.01
194,47.61,12.42,18.88,21.09
195,45.44,12.1,20.23,22.22
196,42.16,11.09,21.46,25.29
197,39.33,10.8,22.84,27.03
198,37.19,9.14,24.52,29.15
199,35.28,8.77,25.56,30.39
200,67.13,24.77,4.85,3.25
201,66.16,24.19,5.72,3.93
202,65.67,23.42,6.31,4.6
203,65.04,22.2,7.18,5.58
204,64.4,21.96,7.58,6.06
205,63.38,21.35,8.35,6.91
206,62.21,20.57,9.37,7.86
207,61.29,19.92,10.29,8.5
208,59.25,19.59,11.51,9.65
209,58.2,18.93,12.1,10.77
210,55.78,18.65,13.29,12.28
211,54.35,17.52,14.88,13.25
212,51.74,17.02,16.21,15.04
213,49.18,16.28,17.65,16.89
214,46.84,15.26,18.85,19.05
215,44.07,14.45,20.64,20.85
216,42.05,13.03,22.15,22.77
217,38.85,12.05,24.14,24.96
218,36.95,12.06,24.95,26.04
219,35.42,10.09,26.61,27.89
220,32.54,9.75,28.19,29.51
221,63.35,27.35,5.63,3.67
222,63.03,26.77,6.36,3.84
223,62.37,25.81,6.81,5.0
224,61.22,25.4,8.11,5.27
225,61.7,23.97,8.57,5.75
226,60.52,23.38,9.57,6.53
227,57.96,23.29,10.56,8.19
228,57.11,22.71,11.53,8.65
229,55.94,22.03,12.32,9.71
230,54.64,21.02,13.8,10.54
231,52.0,20.81,15.06,12.13
232,50.42,19.81,16.64,13.14
233,49.12,18.11,17.7,15.07
234,45.86,17.35,19.4,17.39
235,44.12,15.77,21.49,18.61
236,42.11,14.4,22.57,20.92
237,39.22,13.94,24.17,22.67
238,37.32,12.68,26.21,23.79
239,34.91,11.21,27.55,26.33
240,32.76,9.82,30.04,27.38
241,,,,
242,58.67,29.87,7.19,4.27
243,58.82,28.6,7.97,4.61
244,57.79,27.96,8.84,5.4
245,58.11,26.33,9.8,5.76
246,56.99,25.67,10.87,6.47
247,55.08,25.65,11.93,7.34
248,54.15,24.67,13.08,8.1
249,52.22,24.32,13.99,9.47
250,50.88,23.17,15.45,10.51
251,49.43,22.14,16.49,11.94
252,47.58,21.3,17.88,13.24
253,44.9,20.77,19.68,14.66
254,42.83,18.83,21.87,16.48
255,40.77,17.91,23.27,18.05
256,39.44,16.25,25.21,19.1
257,36.56,15.11,26.83,21.51
258,35.55,14.33,28.04,22.07
259,31.89,12.77,30.05,25.29
260,30.62,11.88,32.04,25.46
261,55.44,32.5,7.84,4.22
262,54.81,31.66,8.77,4.76
263,53.88,30.87,9.94,5.31
264,53.5,29.26,11.36,5.88
265,52.93,29.27,12.12,5.68
266,51.7,28.0,13.23,7.06
267,50.68,27.21,14.46,7.65
268,48.58,26.66,15.47,9.28
269,47.16,25.37,17.22,10.26
270,45.26,24.2,18.91,11.63
271,43.53,22.76,20.27,13.45
272,41.41,22.4,22.32,13.88
273,40.01,20.21,23.88,15.9
274,38.57,18.69,25.75,17.0
275,36.51,17.67,27.78,18.04
276,34.8,15.82,28.77,20.61
277,30.72,15.14,31.58,22.56
278,30.16,12.38,33.29,24.17
279,27.63,12.7,34.2,25.47
280,50.3,34.77,10.14,4.79
281,49.74,33.76,11.13,5.37
282,49.17,32.41,12.25,6.17
283,48.08,32.41,13.74,5.77
284,47.16,30.91,14.66,7.27
285,46.32,30.18,16.01,7.49
286,45.5,28.34,17.61,8.56
287,42.72,28.23,19.0,10.06
288,42.27,25.84,21.02,10.86
289,40.16,24.76,22.4,12.69
290,38.95,23.32,23.98,13.75
291,36.93,21.14,26.44,15.49
292,36.3,19.88,27.67,16.15
293,33.11,18.73,29.65,18.51
294,31.6,16.95,32.09,19.36
295,28.32,16.86,34.24,20.57
296,28.47,14.45,36.17,20.92
297,45.99,36.95,11.72,5.35
298,45.32,35.63,13.77,5.28
299,44.56,34.18,15.09,6.16
300,44.2,33.5,16.0,6.29
301,43.1,31.52,17.85,7.53
302,41.16,30.54,19.53,8.78
303,39.45,29.61,20.78,10.16
304,39.08,28.28,22.69,9.96
305,36.92,26.7,24.25,12.13
306,35.92,25.14,26.17,12.78
307,34.26,23.06,28.85,13.83
308,33.54,20.56,30.61,15.28
309,31.51,18.89,32.74,16.86
310,28.07,17.78,35.76,18.38
311,28.22,15.62,37.09,19.07
312,41.73,38.96,14.52,4.79
313,41.53,36.4,16.05,6.02
314,40.04,35.74,17.89,6.33
315,39.16,34.62,19.32,6.9
316,37.67,33.49,21.1,7.74
317,36.7,31.28,22.77,9.25
318,36.03,30.07,24.16,9.75
319,34.5,27.88,26.91,10.71
320,32.06,27.12,28.77,12.05
321,31.87,23.67,30.76,13.71
322,30.61,21.0,33.71,14.68
323,28.04,20.53,35.61,15.81
324,28.09,17.96,36.97,16.98
325,37.06,40.48,16.67,5.8
326,36.17,38.37,19.11,6.35
327,34.9,37.52,20.77,6.8
328,33.97,34.87,23.11,8.06
329,33.33,33.06,24.54,9.06
330,33.22,31.71,26.13,8.93
331,30.44,29.98,29.51,10.07
332,30.62,26.53,31.11,11.74
333,29.39,24.35,33.27,12.98
334,28.14,21.69,36.24,13.93
335,26.14,19.94,39.36,14.56
336,32.16,38.95,22.78,6.1
337,30.53,37.44,24.54,7.49
338,29.96,35.99,26.22,7.84
339,29.94,33.05,27.99,9.02
340,28.75,30.41,31.04,9.8
341,27.93,27.86,33.11,11.1
342,26.55,25.47,37.05,10.94