File: Burgel/15453660/Composition_Dataset/ML_2_Pt-rich_Ni-Pd-Pt-Ru_EDX.csv
Index,Ni,Pd,Pt,Ru
1,33.76,6.47,48.52,11.25
2,31.52,5.97,50.97,11.54
3,29.75,5.31,52.22,12.72
4,26.04,5.56,54.51,13.89
5,26.03,4.24,55.24,14.49
6,22.53,4.65,57.14,15.68
7,20.5,3.91,59.24,16.35
8,19.79,4.04,59.36,16.81
9,17.94,3.4,61.2,17.47
10,16.22,3.48,61.99,18.31
11,15.17,2.3,63.45,19.08
12,34.11,6.99,49.04,9.86
13,32.18,5.69,51.61,10.52
14,29.2,5.44,53.66,11.7
15,27.9,4.73,55.44,11.94
16,25.43,5.33,56.75,12.49
17,24.21,5.04,57.61,13.14
18,21.82,4.49,59.36,14.33
19,19.62,3.48,61.6,15.3
20,18.36,3.22,63.07,15.35
21,16.65,3.24,63.46,16.65
22,14.88,3.47,64.02,17.64
23,14.89,2.87,65.21,17.02
24,13.47,2.33,66.17,18.03
25,33.42,7.86,50.33,8.39
26,31.27,6.81,52.71,9.21
27,28.79,6.81,55.08,9.32
28,26.08,5.99,56.83,11.1
29,24.63,5.77,58.07,11.53
30,23.65,5.21,59.58,11.56
31,21.22,4.88,60.96,12.95
32,19.6,3.86,63.47,13.07
33,18.03,3.69,65.04,13.25
34,16.57,2.88,66.17,14.38
35,14.22,3.11,67.61,15.07
36,13.15,3.19,68.28,15.38
37,12.85,2.51,69.38,15.26
38,11.78,2.73,69.43,16.07
39,10.91,3.06,69.47,16.56
40,33.38,8.66,50.98,6.98
41,31.38,7.85,52.8,7.97
42,27.47,8.01,55.39,9.12
43,26.75,6.77,57.67,8.8
44,23.9,6.35,59.2,10.55
45,22.46,6.5,60.59,10.44
46,20.87,5.41,63.09,10.63
47,19.72,5.03,64.5,10.75
48,17.2,4.82,65.24,12.74
49,16.95,4.12,66.95,11.97
50,15.51,4.55,67.74,12.21
51,13.91,3.36,69.56,13.17
52,13.42,2.86,70.57,13.15
53,11.16,3.26,71.16,14.42
54,10.59,2.81,71.49,15.11
55,9.63,2.31,72.74,15.32
56,9.04,2.38,73.17,15.41
57,33.15,9.61,50.7,6.55
58,29.38,9.5,54.12,7.0
59,27.93,8.78,56.1,7.2
60,26.5,7.13,57.57,8.8
61,24.2,6.77,60.16,8.88
62,21.73,6.75,62.45,9.07
63,21.14,5.6,64.09,9.17
64,19.18,5.43,65.11,10.29
65,17.36,5.37,66.87,10.4
66,16.37,5.02,68.09,10.51
67,14.97,4.59,69.39,11.05
68,14.15,3.18,70.69,11.98
69,13.19,3.3,71.39,12.12
70,11.62,2.78,73.55,12.06
71,10.36,2.83,73.87,12.93
72,10.22,2.74,74.0,13.05
73,8.99,2.23,75.24,13.54
74,8.87,2.13,74.8,14.2
75,8.22,1.29,75.81,14.68
76,29.55,10.67,53.76,6.02
77,27.83,9.07,56.65,6.46
78,25.85,8.81,58.17,7.17
79,23.62,8.44,60.74,7.2
80,21.89,7.43,63.14,7.54
81,20.37,6.44,64.27,8.93
82,19.68,5.06,66.35,8.9
83,17.03,5.16,68.32,9.48
84,16.07,4.94,69.57,9.43
85,15.59,4.26,70.44,9.71
86,13.48,3.63,72.52,10.37
87,12.9,2.89,73.6,10.61
88,11.86,3.67,74.15,10.32
89,10.54,2.68,75.39,11.4
90,10.04,2.86,75.18,11.92
91,9.45,2.45,76.2,11.9
92,8.28,1.81,77.59,12.33
93,8.15,1.73,76.69,13.43
94,7.15,1.31,78.2,13.34
95,29.23,11.61,53.57,5.59
96,27.6,10.01,56.61,5.78
97,25.7,9.24,58.17,6.88
98,23.99,8.76,61.34,5.91
99,21.99,7.93,62.9,7.19
100,20.24,7.28,64.41,8.08
101,18.48,6.56,67.38,7.58
102,17.3,6.23,68.39,8.08
103,16.49,5.85,69.55,8.12
104,15.1,4.66,71.33,8.91
105,14.71,4.37,72.1,8.82
106,12.39,4.47,74.03,9.11
107,11.6,3.78,74.66,9.97
108,10.6,4.13,75.32,9.95
109,10.71,2.85,76.45,9.99
110,9.08,2.43,78.28,10.21
111,8.55,2.23,78.43,10.79
112,7.6,2.03,79.48,10.9
113,6.74,1.71,80.2,11.35
114,6.67,1.86,79.75,11.73
115,6.71,1.81,79.97,11.52
116,26.85,11.79,55.68,5.68
117,25.18,10.9,58.6,5.33
118,24.22,9.55,60.98,5.25
119,21.56,9.28,63.61,5.55
120,19.67,7.58,66.12,6.62
121,18.13,7.04,67.98,6.85
122,16.96,6.69,69.2,7.15
123,15.46,6.15,70.8,7.59
124,14.9,5.62,71.54,7.94
125,13.53,5.38,73.02,8.07
126,12.59,4.77,74.51,8.13
127,11.49,4.56,75.84,8.11
128,10.96,3.97,76.49,8.58
129,10.03,3.7,76.97,9.29
130,9.5,3.09,77.3,10.11
131,7.84,2.8,79.74,9.63
132,7.5,2.72,80.05,9.73
133,7.51,2.08,80.59,9.82
134,6.93,1.45,82.11,9.51
135,6.61,1.67,81.86,9.87
136,6.6,1.65,81.62,10.14
137,24.81,11.24,59.04,4.91
138,23.5,10.16,61.32,5.02
139,20.83,9.71,63.9,5.56
140,19.51,8.91,65.85,5.73
141,18.19,8.2,67.67,5.94
142,17.29,7.25,69.42,6.04
143,15.63,6.11,71.97,6.29
144,14.32,6.39,72.55,6.73
145,13.16,6.17,73.68,6.99
146,12.73,5.23,74.54,7.5
147,11.27,4.65,76.49,7.59
148,10.83,4.55,77.08,7.54
149,9.76,4.22,77.91,8.12
150,9.6,3.59,78.14,8.67
151,8.44,2.41,81.11,8.04
152,7.42,2.5,80.68,9.39
153,7.18,2.58,81.58,8.67
154,6.77,2.1,82.03,9.11
155,6.94,2.31,81.88,8.86
156,6.16,1.75,82.57,9.51
157,6.27,1.71,83.08,8.95
158,23.57,12.67,59.95,3.81
159,21.95,10.35,63.09,4.61
160,19.42,10.32,65.26,4.99
161,17.53,8.87,68.3,5.3
162,15.92,7.82,70.35,5.91
163,15.25,7.08,72.05,5.63
164,14.08,6.62,73.2,6.11
165,13.29,6.06,73.93,6.73
166,12.36,5.47,75.44,6.73
167,11.74,5.08,76.35,6.83
168,10.59,4.69,77.61,7.11
169,9.69,4.38,78.62,7.31
170,9.0,4.17,79.32,7.51
171,7.88,3.51,81.19,7.42
172,7.66,3.51,81.09,7.74
173,7.47,2.85,82.45,7.24
174,7.14,2.67,82.34,7.86
175,6.4,2.06,83.63,7.92
176,5.76,2.03,84.27,7.95
177,5.86,1.63,84.28,8.22
178,5.83,1.53,84.2,8.44
179,20.99,12.02,62.85,4.14
180,18.77,11.43,65.46,4.33
181,18.57,10.44,66.7,4.29
182,16.41,8.99,70.32,4.28
183,15.63,7.96,71.39,5.01
184,13.85,7.24,73.67,5.25
185,12.48,7.42,74.43,5.67
186,12.29,6.02,76.69,5.0
187,11.78,5.59,76.69,5.93
188,10.71,5.0,78.41,5.87
189,9.16,5.0,79.41,6.43
190,8.41,4.5,80.63,6.46
191,7.56,4.09,81.65,6.71
192,7.93,2.96,82.0,7.11
193,6.39,3.23,83.84,6.54
194,6.52,2.71,84.16,6.6
195,5.93,2.93,83.99,7.16
196,6.25,1.96,84.45,7.34
197,5.85,1.58,84.99,7.58
198,5.46,1.85,85.17,7.53
199,6.14,1.13,85.39,7.34
200,18.42,12.95,63.95,4.67
201,17.07,11.25,67.51,4.17
202,16.04,9.89,69.67,4.4
203,14.9,9.5,71.3,4.3
204,14.61,8.12,72.68,4.58
205,13.47,7.33,74.52,4.67
206,11.76,6.94,75.97,5.33
207,10.84,6.4,77.73,5.03
208,10.39,5.53,78.46,5.62
209,9.2,5.08,80.23,5.49
210,8.35,4.95,80.76,5.95
211,7.85,4.4,82.18,5.57
212,7.49,3.55,83.04,5.91
213,7.12,3.34,83.77,5.78
214,6.33,3.05,84.88,5.73
215,6.74,3.0,84.25,6.01
216,6.52,2.56,85.07,5.86
217,5.1,2.07,86.12,6.72
218,5.35,2.45,85.47,6.73
219,4.71,1.57,86.91,6.81
220,5.6,1.06,86.53,6.81
221,16.06,13.09,66.13,4.72
222,15.69,10.71,69.46,4.14
223,13.97,10.34,71.51,4.18
224,13.76,8.89,73.44,3.92
225,12.69,8.46,74.62,4.23
226,11.52,7.65,76.34,4.49
227,11.55,6.27,76.97,5.21
228,10.08,6.37,78.87,4.68
229,8.97,5.98,80.15,4.9
230,9.15,5.58,80.13,5.13
231,8.81,4.94,81.84,4.41
232,7.35,4.17,82.94,5.53
233,7.2,4.33,83.55,4.92
234,7.25,3.48,83.99,5.29
235,6.04,2.99,85.57,5.4
236,5.63,3.33,85.94,5.11
237,5.71,2.7,85.65,5.94
238,5.04,1.68,87.68,5.6
239,4.56,1.97,87.36,6.11
240,5.13,1.56,87.73,5.58
241,5.01,1.64,87.44,5.9
242,14.27,11.95,70.61,3.17
243,13.23,10.36,72.0,4.41
244,13.16,9.37,74.28,3.19
245,11.57,8.8,75.64,3.99
246,10.41,7.92,77.22,4.45
247,9.73,6.95,79.06,4.26
248,9.65,5.87,80.62,3.86
249,8.77,5.65,81.58,4.0
250,7.5,5.66,82.56,4.28
251,7.71,4.46,83.22,4.61
252,6.88,4.41,83.92,4.79
253,6.72,3.65,85.39,4.24
254,6.32,3.55,85.1,5.04
255,5.51,3.84,85.35,5.3
256,5.87,2.49,87.17,4.47
257,4.82,1.9,88.08,5.19
258,4.61,2.6,87.44,5.35
259,5.75,1.62,87.46,5.16
260,4.33,1.69,88.55,5.43
261,12.66,12.19,71.33,3.82
262,12.37,10.27,74.1,3.27
263,11.28,8.9,75.88,3.93
264,10.55,8.37,77.19,3.9
265,9.66,8.14,78.98,3.22
266,8.29,7.35,80.68,3.68
267,8.6,6.6,81.2,3.59
268,8.12,6.15,81.78,3.94
269,7.22,5.08,83.57,4.13
270,7.02,4.87,83.88,4.23
271,6.53,4.5,84.4,4.57
272,5.63,4.01,86.12,4.24
273,5.54,3.71,86.31,4.44
274,5.43,3.4,86.83,4.34
275,5.79,2.23,88.12,3.86
276,4.97,2.31,87.82,4.9
277,5.25,2.29,87.95,4.51
278,4.34,1.73,89.38,4.55
279,4.78,1.79,89.16,4.26
280,11.22,11.11,74.62,3.05
281,10.85,10.85,74.97,3.32
282,9.54,8.99,78.53,2.94
283,9.17,7.91,80.13,2.79
284,8.47,7.14,80.78,3.62
285,8.26,6.66,81.8,3.29
286,7.25,6.1,83.28,3.38
287,6.62,5.62,84.3,3.46
288,6.61,5.64,84.37,3.38
289,5.61,4.07,86.56,3.76
290,6.0,4.12,86.36,3.52
291,5.96,3.35,86.82,3.87
292,5.85,3.37,87.05,3.73
293,4.6,3.07,88.35,3.97
294,3.77,2.51,89.44,4.28
295,5.26,2.38,88.34,4.03
296,5.11,1.89,89.43,3.57
297,9.4,10.58,76.89,3.13
298,9.29,8.91,78.8,3.0
299,8.15,8.06,81.14,2.65
300,7.42,7.51,81.57,3.5
301,7.14,6.62,83.58,2.67
302,7.03,6.19,82.8,3.98
303,6.56,5.22,84.9,3.32
304,6.14,5.18,85.81,2.87
305,6.17,4.63,85.97,3.23
306,5.9,4.28,87.01,2.8
307,5.35,2.83,88.46,3.36
308,4.65,3.42,88.65,3.27
309,4.78,2.92,88.59,3.71
310,4.09,2.49,89.62,3.8
311,4.55,2.34,89.49,3.62
312,7.96,9.83,79.94,2.26
313,7.31,8.85,81.42,2.41
314,7.26,7.79,81.95,3.01
315,6.48,7.1,83.21,3.2
316,7.09,5.94,84.42,2.56
317,6.05,4.89,85.88,3.18
318,5.39,5.0,86.49,3.12
319,4.95,4.56,87.25,3.25
320,5.73,4.48,87.59,2.2
321,5.32,3.77,88.17,2.73
322,4.8,2.71,89.71,2.78
323,4.95,2.72,89.53,2.8
324,4.98,2.01,90.04,2.97
325,7.23,9.24,80.51,3.02
326,6.31,8.14,82.45,3.11
327,6.89,6.97,83.67,2.47
328,5.94,6.4,85.2,2.47
329,4.97,5.77,86.86,2.4
330,5.17,4.77,87.48,2.58
331,5.12,4.73,87.35,2.79
332,5.17,4.41,87.77,2.66
333,4.79,3.88,88.6,2.74
334,5.0,3.04,89.36,2.61
335,4.23,2.45,89.6,3.71
336,5.91,7.0,84.64,2.45
337,5.3,6.82,85.27,2.61
338,5.74,5.65,85.95,2.66
339,4.92,6.05,86.53,2.5
340,4.92,4.27,88.15,2.66
341,4.57,3.89,88.55,2.99
342,5.67,3.63,88.44,2.27