File: Burgel/15453660/Composition_Dataset/ML_3_Pd-rich_Ni-Pd-Pt-Ru_EDX.csv
Index,Ni,Pd,Pt,Ru
1,32.45,52.21,7.96,7.37
2,32.77,50.14,8.96,8.12
3,31.55,48.21,9.82,10.42
4,32.59,46.65,10.86,9.9
5,29.34,46.06,10.73,13.88
6,29.41,44.29,12.46,13.84
7,30.18,40.36,13.82,15.64
8,27.24,40.08,15.56,17.12
9,25.6,38.8,16.4,19.2
10,25.57,36.53,17.35,20.55
11,25.0,34.31,18.14,22.55
12,30.05,56.48,7.51,5.96
13,29.7,54.57,8.12,7.61
14,29.72,54.01,8.53,7.75
15,28.84,52.29,9.97,8.89
16,28.73,50.0,10.77,10.5
17,27.3,49.14,11.78,11.78
18,28.79,45.51,12.38,13.31
19,26.95,44.16,14.29,14.61
20,26.13,42.16,15.68,16.03
21,25.0,40.07,17.28,17.65
22,24.32,37.84,18.92,18.92
23,22.18,35.98,20.08,21.76
24,22.02,34.4,21.1,22.48
25,28.19,60.18,6.49,5.15
26,28.06,58.8,7.57,5.57
27,27.11,57.78,8.0,7.11
28,26.61,56.42,9.17,7.8
29,26.56,55.2,10.16,8.08
30,26.65,53.07,11.08,9.2
31,25.89,50.68,12.81,10.63
32,23.33,50.51,14.1,12.05
33,24.65,46.46,15.58,13.31
34,23.08,45.85,15.69,15.38
35,23.15,42.95,17.79,16.11
36,23.16,40.07,19.12,17.65
37,21.26,37.8,20.47,20.47
38,19.91,36.73,22.57,20.8
39,18.18,33.49,24.4,23.92
40,25.44,64.47,6.21,3.88
41,25.37,62.78,6.85,5.0
42,25.52,61.9,7.62,4.95
43,24.61,60.83,8.27,6.3
44,23.57,60.25,9.22,6.97
45,23.92,57.97,10.13,7.97
46,23.18,56.65,11.37,8.8
47,23.77,53.59,13.0,9.64
48,23.69,50.87,14.21,11.22
49,22.48,49.35,15.76,12.4
50,22.56,47.63,16.99,12.81
51,21.8,45.06,18.6,14.53
52,19.68,44.13,20.0,16.19
53,18.31,40.14,22.18,19.37
54,17.67,37.35,24.5,20.48
55,18.72,34.47,25.11,21.7
56,16.59,33.65,26.07,23.7
57,23.72,67.06,5.63,3.58
58,23.51,66.14,6.32,4.04
59,23.73,65.27,6.63,4.36
60,24.16,63.68,7.6,4.56
61,22.57,63.67,8.26,5.5
62,22.2,61.89,9.79,6.12
63,22.65,60.84,10.56,5.95
64,21.48,58.75,11.79,7.98
65,20.08,56.63,13.45,9.84
66,20.63,54.71,14.13,10.54
67,20.67,52.49,15.91,10.93
68,19.9,49.49,17.6,13.01
69,20.18,45.61,19.59,14.62
70,18.55,44.97,21.07,15.41
71,18.79,41.84,23.4,15.96
72,18.15,38.89,24.81,18.15
73,18.11,35.83,25.2,20.87
74,16.0,32.89,27.56,23.56
75,16.2,30.09,29.63,24.07
76,20.22,71.41,5.53,2.84
77,20.47,69.22,6.25,4.06
78,20.67,67.93,6.84,4.56
79,20.5,66.98,7.67,4.85
80,20.26,64.99,9.08,5.67
81,20.4,64.76,9.44,5.4
82,19.87,61.95,10.77,7.41
83,20.22,60.3,11.99,7.49
84,18.94,59.66,13.26,8.14
85,19.25,55.9,14.49,10.35
86,17.78,55.33,16.22,10.67
87,18.31,51.88,18.31,11.5
88,18.16,49.25,19.15,13.43
89,16.57,46.69,21.82,14.92
90,16.29,43.13,24.6,15.97
91,16.9,40.34,25.52,17.24
92,15.71,36.78,27.59,19.92
93,15.19,35.02,29.54,20.25
94,13.24,32.35,30.88,23.53
95,18.47,73.28,5.5,2.75
96,18.41,72.8,5.81,2.97
97,18.9,71.37,6.63,3.1
98,18.01,70.72,7.17,4.1
99,19.12,69.12,7.51,4.25
100,17.99,68.37,8.7,4.95
101,18.2,66.62,9.92,5.26
102,17.7,65.55,10.69,6.06
103,17.38,63.58,11.92,7.12
104,18.26,60.46,13.48,7.8
105,17.39,59.36,14.56,8.7
106,16.63,57.7,16.63,9.03
107,16.28,54.76,18.18,10.78
108,15.4,51.52,20.71,12.37
109,16.58,48.13,21.66,13.64
110,15.32,45.96,23.4,15.32
111,14.52,41.94,26.45,17.1
112,13.86,40.07,29.21,16.85
113,13.82,35.77,30.08,20.33
114,12.96,32.41,33.33,21.3
115,13.2,29.95,34.01,22.84
116,17.38,74.62,5.24,2.76
117,16.71,75.68,5.71,1.9
118,17.45,72.97,6.43,3.15
119,17.33,72.27,7.2,3.2
120,16.69,71.55,8.21,3.56
121,16.71,69.87,8.82,4.61
122,16.69,68.47,9.56,5.28
123,16.47,67.07,11.03,5.44
124,15.85,65.45,12.2,6.5
125,16.32,62.92,13.95,6.81
126,15.26,61.4,15.09,8.25
127,14.54,59.72,16.7,9.04
128,15.34,56.7,18.25,9.71
129,15.26,53.53,20.27,10.93
130,13.48,51.72,22.06,12.75
131,14.25,47.95,24.38,13.42
132,13.04,44.41,27.64,14.91
133,12.54,41.58,29.75,16.13
134,14.02,37.12,30.68,18.18
135,12.45,33.61,34.02,19.92
136,11.87,30.59,36.07,21.46
137,15.92,76.56,5.35,2.17
138,15.29,76.19,5.76,2.76
139,16.15,74.87,6.38,2.6
140,15.77,73.46,7.56,3.21
141,16.06,72.19,8.09,3.66
142,15.11,71.06,9.22,4.61
143,14.95,70.89,10.01,4.14
144,14.77,68.43,11.52,5.28
145,14.84,66.62,12.76,5.79
146,14.37,65.2,13.62,6.81
147,13.61,63.44,15.31,7.65
148,13.44,60.59,17.68,8.29
149,14.17,58.25,18.45,9.13
150,13.68,55.79,21.05,9.47
151,13.38,51.34,23.11,12.17
152,12.9,49.46,25.81,11.83
153,13.87,45.09,27.17,13.87
154,12.08,40.94,30.54,16.44
155,11.66,38.16,32.51,17.67
156,11.69,34.2,35.06,19.05
157,10.5,32.42,36.07,21.0
158,14.17,78.67,4.94,2.21
159,13.66,78.39,5.71,2.24
160,14.43,76.48,6.59,2.5
161,13.63,76.28,7.66,2.43
162,13.43,74.51,8.15,3.9
163,13.64,73.2,9.01,4.14
164,13.86,72.02,10.27,3.85
165,12.63,70.96,11.33,5.08
166,14.16,68.13,12.46,5.24
167,13.36,66.38,14.37,5.89
168,13.74,64.12,15.42,6.72
169,12.63,62.29,17.06,8.02
170,12.59,60.15,18.98,8.27
171,12.43,56.5,21.36,9.71
172,11.09,53.91,23.48,11.52
173,12.28,50.13,26.07,11.53
174,11.33,47.03,28.33,13.31
175,11.18,42.24,31.68,14.91
176,11.5,39.02,34.15,15.33
177,11.11,36.67,35.56,16.67
178,11.11,32.89,38.22,17.78
179,11.68,81.09,5.33,1.9
180,12.44,79.59,6.04,1.93
181,13.2,77.7,6.94,2.16
182,11.99,77.71,7.47,2.83
183,11.33,76.99,8.41,3.27
184,12.45,74.97,9.31,3.26
185,12.35,73.47,10.51,3.67
186,12.01,72.06,11.75,4.18
187,12.26,70.75,12.77,4.21
188,11.87,68.16,14.39,5.59
189,12.02,65.58,15.28,7.12
190,11.09,65.07,17.55,6.29
191,11.07,61.43,19.29,8.21
192,10.67,58.3,21.74,9.29
193,10.34,56.18,23.37,10.11
194,11.21,51.4,26.64,10.75
195,11.02,48.21,29.48,11.29
196,9.7,44.55,32.42,13.33
197,10.86,39.47,34.87,14.8
198,11.32,35.85,37.36,15.47
199,9.52,32.9,40.69,16.88
200,10.74,82.6,5.8,0.86
201,10.71,81.55,5.92,1.82
202,10.95,80.71,6.79,1.55
203,11.02,78.99,7.69,2.3
204,10.96,77.39,8.51,3.15
205,10.41,76.88,10.05,2.66
206,10.23,75.27,10.72,3.78
207,10.51,73.47,12.02,4.01
208,10.89,71.98,13.1,4.02
209,10.76,70.39,14.48,4.38
210,10.47,68.17,15.7,5.67
211,9.95,65.63,17.88,6.53
212,9.95,62.44,19.73,7.89
213,10.72,59.33,22.0,7.95
214,9.65,56.26,24.23,9.86
215,10.82,52.16,26.92,10.1
216,10.05,49.21,29.89,10.85
217,9.86,45.8,32.46,11.88
218,10.65,41.61,35.48,12.26
219,11.32,38.49,37.74,12.45
220,9.4,33.33,41.03,16.24
221,9.49,83.68,5.44,1.39
222,9.82,82.12,6.29,1.77
223,10.35,80.88,6.86,1.91
224,9.77,79.8,7.82,2.61
225,10.63,78.29,8.75,2.33
226,10.43,76.91,9.87,2.8
227,9.71,76.49,10.76,3.04
228,9.99,74.55,11.77,3.69
229,10.18,72.52,13.1,4.2
230,9.5,71.23,14.94,4.33
231,9.37,69.61,16.33,4.69
232,8.75,67.19,17.81,6.25
233,9.58,63.24,19.86,7.32
234,9.27,60.91,22.91,6.91
235,9.74,57.85,24.45,7.95
236,9.2,54.25,28.05,8.51
237,9.14,50.37,29.63,10.86
238,8.47,46.99,33.61,10.93
239,8.28,42.68,36.94,12.1
240,9.46,38.51,38.85,13.18
241,10.34,33.72,41.76,14.18
242,8.68,83.15,6.36,1.82
243,9.0,82.1,7.07,1.82
244,9.25,80.62,7.71,2.42
245,9.34,79.51,8.81,2.34
246,10.27,77.46,10.04,2.23
247,9.06,77.41,10.78,2.75
248,9.4,74.73,12.45,3.42
249,8.67,74.6,13.43,3.3
250,8.86,72.4,14.89,3.85
251,8.54,70.11,16.39,4.96
252,8.62,68.08,18.15,5.14
253,9.09,64.59,20.41,5.9
254,9.29,61.38,22.95,6.38
255,8.65,58.15,25.35,7.85
256,8.17,55.19,28.7,7.95
257,8.63,50.76,31.22,9.39
258,8.24,47.16,34.38,10.23
259,9.79,42.2,37.31,10.7
260,8.66,38.63,41.16,11.55
261,7.83,83.9,5.98,2.29
262,8.05,83.05,7.11,1.78
263,7.75,81.78,8.17,2.3
264,7.72,81.48,8.93,1.87
265,8.23,79.37,10.37,2.03
266,8.05,77.83,10.97,3.15
267,8.48,76.68,12.37,2.47
268,7.86,75.13,14.3,2.71
269,7.66,72.92,15.06,4.36
270,7.64,70.86,16.69,4.81
271,7.61,69.09,18.77,4.53
272,7.22,67.16,20.36,5.25
273,7.77,62.37,23.32,6.54
274,7.57,60.12,26.18,6.13
275,7.48,56.07,29.44,7.01
276,8.03,52.33,32.12,7.51
277,7.69,48.43,34.76,9.12
278,8.56,43.12,38.23,10.09
279,8.47,40.0,40.68,10.85
280,7.38,83.76,7.07,1.79
281,6.81,83.54,7.83,1.82
282,7.38,82.1,9.11,1.41
283,6.93,80.84,10.06,2.16
284,7.45,78.75,11.23,2.56
285,7.51,77.36,12.63,2.5
286,7.01,76.23,13.77,2.99
287,6.74,73.66,15.23,4.37
288,7.27,71.74,16.74,4.25
289,6.18,70.69,19.11,4.02
290,7.18,66.83,20.89,5.1
291,8.2,63.28,23.35,5.17
292,8.41,60.99,26.0,4.59
293,7.18,57.64,28.94,6.25
294,7.38,52.16,32.82,7.63
295,7.67,48.86,35.23,8.24
296,7.64,43.63,38.85,9.87
297,5.91,84.28,8.02,1.79
298,6.31,82.83,9.3,1.55
299,6.69,80.7,10.2,2.41
300,7.11,80.07,11.19,1.63
301,6.46,78.71,12.57,2.27
302,6.51,77.08,13.63,2.77
303,6.6,74.83,15.54,3.03
304,5.57,73.82,17.27,3.34
305,7.74,69.66,19.04,3.56
306,7.25,66.95,21.25,4.55
307,7.46,64.65,24.33,3.55
308,7.44,60.56,27.16,4.83
309,7.1,57.42,29.89,5.59
310,7.75,52.5,33.0,6.75
311,6.78,49.26,36.87,7.08
312,6.16,83.78,8.54,1.51
313,5.68,82.83,10.21,1.28
314,6.39,80.25,11.19,2.17
315,6.29,78.9,12.79,2.02
316,5.69,77.48,14.6,2.23
317,7.0,75.43,15.46,2.11
318,6.0,73.43,17.57,3.0
319,5.93,71.43,19.6,3.04
320,6.38,68.12,21.98,3.52
321,7.12,64.04,24.72,4.12
322,6.05,61.34,27.43,5.18
323,6.71,57.64,31.02,4.63
324,7.16,52.43,35.29,5.12
325,5.57,82.82,9.95,1.66
326,6.6,80.33,11.31,1.77
327,5.51,79.45,12.78,2.26
328,5.66,77.49,14.02,2.83
329,6.01,76.11,15.93,1.96
330,6.55,73.51,17.71,2.23
331,6.09,71.08,19.79,3.04
332,6.27,68.82,22.13,2.79
333,7.1,63.93,24.41,4.55
334,6.72,61.34,28.36,3.57
335,6.94,57.42,31.34,4.31
336,5.05,80.05,12.82,2.07
337,4.71,79.14,14.27,1.88
338,5.34,75.92,16.01,2.74
339,5.14,74.45,17.91,2.5
340,4.67,72.33,20.5,2.5
341,6.2,68.84,22.45,2.51
342,5.02,65.66,25.5,3.82