File: Burgel/15453660/Composition_Dataset/ML_4_Ni-rich_Ni-Pd-Pt-Ru_EDX.csv
Index,Ni,Pd,Pt,Ru
1,80.83,5.95,4.53,8.69
2,79.14,6.17,5.01,9.68
3,77.48,6.01,5.47,11.03
4,75.53,6.06,6.06,12.36
5,73.8,5.83,6.58,13.79
6,72.18,5.54,7.08,15.19
7,69.5,5.84,7.64,17.01
8,67.3,4.94,8.29,19.47
9,64.39,5.55,9.25,20.81
10,61.45,4.9,10.34,23.31
11,58.24,5.4,10.99,25.37
12,80.99,6.97,4.76,7.28
13,79.64,6.91,5.09,8.36
14,77.88,6.84,5.63,9.65
15,76.06,6.73,6.29,10.92
16,74.14,6.54,6.71,12.61
17,72.81,6.42,7.19,13.58
18,71.05,6.1,7.82,15.04
19,68.35,6.22,8.74,16.69
20,65.4,6.1,9.62,18.88
21,63.0,6.07,10.34,20.58
22,59.89,5.87,11.1,23.14
23,57.03,5.38,11.98,25.62
24,53.22,5.46,12.89,28.42
25,80.49,8.21,4.7,6.6
26,79.48,7.86,5.24,7.43
27,77.6,7.78,5.74,8.89
28,76.94,7.32,6.31,9.44
29,75.3,7.42,6.82,10.46
30,72.73,7.5,7.5,12.28
31,71.45,6.98,8.18,13.39
32,69.01,7.17,8.91,14.91
33,67.18,6.53,9.68,16.62
34,64.3,6.42,10.7,18.58
35,61.59,6.04,11.48,20.9
36,58.24,6.61,12.54,22.61
37,55.38,6.12,13.29,25.21
38,51.72,5.61,14.82,27.85
39,48.89,5.79,15.52,29.8
40,80.28,9.01,4.89,5.81
41,79.3,8.98,5.28,6.44
42,78.08,8.73,5.98,7.21
43,76.3,8.48,6.41,8.81
44,74.7,8.3,7.09,9.92
45,73.18,8.38,7.6,10.84
46,71.12,8.32,8.3,12.27
47,69.76,7.8,9.23,13.21
48,67.35,7.83,9.87,14.96
49,65.44,7.64,10.71,16.21
50,62.59,7.73,11.76,17.93
51,59.64,6.98,12.92,20.46
52,57.02,6.64,14.18,22.16
53,53.2,6.95,15.19,24.66
54,50.39,6.58,16.43,26.59
55,46.57,6.14,17.55,29.75
56,43.57,5.91,18.83,31.69
57,80.06,10.43,4.76,4.74
58,78.55,10.35,5.4,5.7
59,76.89,10.28,6.12,6.71
60,76.67,9.94,6.34,7.04
61,74.69,9.29,7.3,8.72
62,73.15,9.54,7.8,9.52
63,71.25,9.16,8.61,10.98
64,69.46,9.17,9.19,12.17
65,67.59,8.71,10.34,13.36
66,65.38,8.87,11.05,14.7
67,63.61,8.41,11.76,16.22
68,60.75,7.88,12.98,18.39
69,57.63,8.02,14.27,20.08
70,54.76,7.46,15.34,22.45
71,51.32,8.03,16.48,24.17
72,48.56,6.61,18.04,26.79
73,45.16,6.94,18.92,28.99
74,41.72,6.48,19.87,31.92
75,38.11,6.05,21.47,34.37
76,78.29,11.71,5.34,4.66
77,77.04,11.37,5.9,5.69
78,75.11,11.79,6.51,6.59
79,74.51,10.56,7.21,7.72
80,72.98,10.6,7.91,8.52
81,71.38,10.53,8.75,9.33
82,69.23,10.49,9.53,10.74
83,68.04,9.72,10.37,11.87
84,66.01,9.5,11.35,13.14
85,63.69,9.02,12.24,15.05
86,60.91,9.41,13.29,16.39
87,58.14,9.33,14.43,18.09
88,56.18,8.35,15.8,19.67
89,52.73,8.48,17.06,21.74
90,49.88,7.85,18.47,23.8
91,45.89,8.03,20.04,26.03
92,42.51,7.21,21.05,29.24
93,39.14,7.19,22.86,30.81
94,35.87,6.29,23.84,34.0
95,76.85,13.32,5.45,4.38
96,75.93,13.14,5.94,4.98
97,74.56,12.87,6.63,5.94
98,74.06,12.49,7.3,6.14
99,72.08,12.48,8.07,7.37
100,71.22,11.84,8.63,8.32
101,69.53,11.39,9.68,9.41
102,67.53,11.72,10.5,10.25
103,65.81,10.92,11.43,11.85
104,64.13,10.8,12.24,12.82
105,61.45,10.52,13.5,14.53
106,59.95,9.97,14.4,15.68
107,56.7,9.36,15.97,17.97
108,53.56,9.74,17.01,19.69
109,51.07,9.01,18.41,21.51
110,47.84,8.68,19.65,23.84
111,44.16,8.2,21.64,25.99
112,41.0,7.56,23.3,28.13
113,37.96,7.67,24.18,30.2
114,34.99,7.3,25.55,32.16
115,32.57,6.24,26.81,34.37
116,74.62,15.12,5.74,4.52
117,74.11,14.36,6.51,5.02
118,72.84,14.03,7.43,5.7
119,71.18,13.95,8.08,6.79
120,71.07,13.31,8.86,6.76
121,69.4,12.81,9.54,8.25
122,67.12,13.03,10.43,9.42
123,66.09,12.14,11.47,10.29
124,63.63,12.0,12.37,12.0
125,61.67,12.03,13.57,12.73
126,59.22,11.43,14.69,14.66
127,56.44,11.46,16.24,15.86
128,54.19,10.7,17.59,17.52
129,51.59,10.4,18.73,19.28
130,47.96,10.09,20.58,21.38
131,45.92,9.52,22.17,22.39
132,42.07,9.13,23.5,25.3
133,39.08,9.11,25.03,26.78
134,35.39,7.9,27.25,29.46
135,33.59,7.04,28.5,30.86
136,30.14,7.31,29.55,33.01
137,72.51,16.5,6.55,4.45
138,72.13,15.9,7.23,4.74
139,70.59,15.81,8.05,5.55
140,69.95,14.66,8.86,6.53
141,67.78,14.95,9.61,7.66
142,66.15,14.53,10.81,8.51
143,64.86,14.08,11.76,9.3
144,62.71,13.77,12.85,10.67
145,61.25,13.1,13.98,11.68
146,58.58,13.39,15.04,12.99
147,56.43,13.12,16.46,13.99
148,54.13,12.44,17.49,15.94
149,51.52,11.67,19.16,17.65
150,48.33,12.03,20.47,19.17
151,46.44,11.31,22.32,19.94
152,43.49,10.14,23.86,22.51
153,40.1,9.98,25.43,24.5
154,37.18,8.61,27.33,26.88
155,33.33,8.21,29.09,29.36
156,31.72,7.94,30.47,29.87
157,28.8,6.74,31.31,33.14
158,70.15,18.22,7.36,4.28
159,69.77,17.38,7.96,4.88
160,68.35,17.1,8.93,5.62
161,66.71,16.97,9.92,6.4
162,65.91,16.24,10.85,7.0
163,64.42,15.69,11.84,8.04
164,62.47,15.24,13.14,9.15
165,60.23,14.93,14.43,10.4
166,57.79,15.09,15.2,11.91
167,56.17,14.56,16.56,12.7
168,53.92,14.11,18.07,13.9
169,51.68,13.07,19.4,15.85
170,48.55,13.59,20.83,17.02
171,46.03,12.63,22.41,18.93
172,43.74,12.16,24.39,19.71
173,40.68,10.91,26.19,22.22
174,37.79,10.56,27.56,24.08
175,36.12,9.34,29.55,24.99
176,32.72,8.94,31.48,26.86
177,29.37,7.96,33.08,29.59
178,27.28,7.43,34.28,31.01
179,67.69,20.07,8.1,4.14
180,66.91,19.68,8.78,4.63
181,65.55,18.97,9.88,5.6
182,64.25,18.53,10.83,6.39
183,63.25,17.81,11.92,7.02
184,60.91,17.74,12.94,8.41
185,59.93,16.9,14.41,8.77
186,57.64,16.86,15.54,9.96
187,55.45,16.46,16.9,11.2
188,54.01,15.84,17.92,12.24
189,52.08,15.18,19.39,13.34
190,49.09,14.94,20.93,15.04
191,46.44,14.14,22.68,16.74
192,43.08,13.98,24.59,18.36
193,39.72,13.03,26.52,20.72
194,38.8,11.57,28.14,21.49
195,35.54,10.96,30.11,23.39
196,33.31,10.91,31.55,24.23
197,29.46,9.54,33.9,27.1
198,27.36,8.48,35.69,28.48
199,25.73,7.77,37.21,29.28
200,64.73,22.29,8.59,4.39
201,64.14,21.46,9.6,4.8
202,63.15,20.27,10.98,5.6
203,61.65,20.34,12.14,5.87
204,60.03,19.96,13.02,6.99
205,58.69,19.45,14.23,7.63
206,57.23,18.32,15.85,8.6
207,54.11,18.63,17.15,10.11
208,53.01,17.98,18.2,10.82
209,51.12,17.58,19.84,11.47
210,48.08,17.06,21.41,13.45
211,46.3,16.27,23.19,14.24
212,43.51,15.57,24.89,16.03
213,40.57,14.77,27.45,17.21
214,38.71,14.01,28.31,18.98
215,36.48,12.92,30.5,20.1
216,32.57,12.59,32.44,22.39
217,31.02,11.44,34.66,22.88
218,29.17,9.9,36.16,24.77
219,25.51,9.25,37.83,27.42
220,24.09,7.65,40.45,27.81
221,59.69,25.97,9.68,4.66
222,60.08,23.87,10.97,5.08
223,59.55,23.12,11.81,5.53
224,57.67,22.84,13.11,6.38
225,57.05,22.27,14.14,6.54
226,55.64,21.01,15.4,7.96
227,53.85,20.84,17.21,8.1
228,51.33,19.95,18.66,10.06
229,50.05,19.9,19.85,10.2
230,47.77,18.88,21.35,12.0
231,45.01,18.62,23.07,13.3
232,42.66,18.09,24.78,14.46
233,40.2,17.38,26.62,15.8
234,37.37,16.21,28.98,17.45
235,35.78,14.87,30.77,18.57
236,33.09,13.74,32.97,20.19
237,30.99,12.97,34.77,21.28
238,29.12,11.45,36.87,22.56
239,26.15,10.2,38.92,24.72
240,24.45,9.27,40.66,25.63
241,22.74,8.95,42.41,25.9
242,56.46,27.32,11.76,4.46
243,56.32,25.97,12.99,4.72
244,54.65,24.99,14.31,6.05
245,53.3,24.41,15.68,6.61
246,52.71,23.18,17.07,7.04
247,50.27,23.21,18.55,7.97
248,48.49,22.36,20.04,9.11
249,47.06,20.95,21.55,10.43
250,44.68,19.87,23.67,11.78
251,42.2,20.1,25.02,12.68
252,40.13,19.37,26.64,13.86
253,38.54,17.99,29.07,14.4
254,35.39,17.06,31.58,15.97
255,32.92,15.89,33.51,17.68
256,31.12,13.79,35.27,19.82
257,29.09,13.49,37.62,19.8
258,26.58,12.25,40.24,20.93
259,23.91,11.66,41.07,23.36
260,23.52,10.81,43.19,22.49
261,53.29,29.34,12.59,4.78
262,52.36,28.49,14.11,5.05
263,50.68,27.88,15.51,5.93
264,49.84,26.57,17.06,6.52
265,48.81,25.28,18.51,7.41
266,47.09,24.89,20.32,7.7
267,44.95,24.25,21.46,9.34
268,43.11,23.19,23.52,10.18
269,41.58,22.53,25.56,10.33
270,39.39,20.39,27.53,12.69
271,37.53,20.03,29.29,13.15
272,34.6,19.92,31.1,14.38
273,32.53,18.45,33.53,15.49
274,30.13,16.54,36.36,16.97
275,28.4,15.6,38.16,17.83
276,26.78,13.51,40.75,18.97
277,25.01,12.21,42.02,20.76
278,23.67,11.03,44.95,20.35
279,21.16,10.84,46.23,21.77
280,48.77,31.23,15.06,4.94
281,47.32,29.95,16.68,6.05
282,46.03,29.57,18.21,6.19
283,44.55,28.1,20.17,7.18
284,43.59,27.14,22.65,6.62
285,41.8,26.03,23.19,8.99
286,39.94,25.3,25.08,9.68
287,37.67,24.88,26.81,10.64
288,36.62,23.5,29.32,10.55
289,34.53,21.38,32.1,11.99
290,32.13,21.0,33.78,13.1
291,30.87,18.83,35.6,14.7
292,28.98,17.86,38.44,14.73
293,27.3,17.25,40.31,15.15
294,25.27,14.99,42.63,17.1
295,23.74,13.43,44.72,18.11
296,22.08,11.56,47.61,18.75
297,44.61,32.34,17.81,5.24
298,42.67,31.11,19.72,6.5
299,42.06,30.12,21.6,6.21
300,39.87,29.44,23.4,7.29
301,38.39,28.29,24.98,8.34
302,37.33,26.42,26.96,9.3
303,35.6,26.04,28.77,9.59
304,33.51,24.43,31.35,10.72
305,32.29,22.49,33.63,11.59
306,29.57,22.09,35.8,12.54
307,27.39,21.05,37.94,13.62
308,26.26,18.49,40.36,14.89
309,24.9,16.36,43.79,14.95
310,23.34,15.19,45.17,16.3
311,21.13,13.8,48.12,16.95
312,38.49,34.31,21.01,6.19
313,37.34,33.32,22.93,6.42
314,36.46,31.79,24.4,7.35
315,34.69,31.13,26.89,7.29
316,34.11,28.48,29.16,8.25
317,32.29,27.32,31.27,9.12
318,31.83,25.21,32.94,10.01
319,28.61,24.31,36.02,11.05
320,27.54,23.06,37.07,12.33
321,25.91,21.43,40.28,12.38
322,23.68,20.21,42.14,13.97
323,22.77,17.97,45.34,13.92
324,21.08,16.77,47.6,14.55
325,34.41,34.86,24.34,6.39
326,33.73,33.61,26.58,6.09
327,32.03,32.03,28.37,7.56
328,31.1,30.83,30.48,7.58
329,29.53,28.64,33.18,8.65
330,28.72,26.58,35.03,9.67
331,27.18,26.17,37.34,9.31
332,25.95,23.9,39.74,10.42
333,24.12,21.81,42.89,11.18
334,22.78,20.08,46.33,10.81
335,21.98,17.88,47.48,12.67
336,29.36,33.77,29.61,7.27
337,28.85,32.63,31.08,7.44
338,27.92,30.25,34.96,6.87
339,25.46,29.65,36.37,8.51
340,25.2,26.35,38.73,9.72
341,23.13,25.31,41.44,10.12
342,22.8,22.8,44.14,10.27