File: Burgel/15453660/Composition_Dataset/ML_5_near-equiatomic_Ni-Pd-Pt-Ru_EDX.csv
Index,Ni,Pd,Pt,Ru
1,46.2,19.49,7.9,26.41
2,43.15,19.43,8.28,29.14
3,41.44,17.9,8.74,31.92
4,38.85,17.64,9.33,34.18
5,36.25,16.54,9.88,37.32
6,34.14,15.75,10.68,39.42
7,31.9,15.07,11.01,42.02
8,29.54,13.84,11.36,45.26
9,26.88,12.2,12.4,48.51
10,24.03,12.89,12.67,50.41
11,21.35,12.07,13.13,53.45
12,46.1,22.5,8.28,23.13
13,43.1,21.92,8.77,26.21
14,42.37,20.74,9.05,27.85
15,39.63,19.97,9.74,30.66
16,37.38,18.84,10.24,33.54
17,34.83,18.2,10.73,36.24
18,33.0,16.59,11.76,38.65
19,30.97,16.05,12.05,40.93
20,28.74,15.04,12.63,43.58
21,25.91,14.27,13.5,46.32
22,23.43,13.52,13.93,49.12
23,22.1,12.71,13.98,51.21
24,18.83,12.14,14.53,54.5
25,45.85,26.02,7.88,20.24
26,43.64,25.4,8.54,22.41
27,41.77,24.36,9.25,24.63
28,40.07,23.2,9.86,26.87
29,38.52,21.24,10.51,29.74
30,35.85,21.14,11.29,31.72
31,33.23,20.18,11.9,34.69
32,31.19,19.19,12.2,37.42
33,29.34,18.04,12.91,39.7
34,27.04,16.61,14.11,42.24
35,24.99,15.21,14.49,45.31
36,22.85,14.24,15.2,47.7
37,20.15,13.44,15.66,50.75
38,18.52,13.48,15.62,52.39
39,15.93,12.13,16.64,55.31
40,45.16,30.03,7.77,17.05
41,44.24,28.62,8.71,18.42
42,41.4,27.63,9.29,21.68
43,40.29,26.63,9.62,23.46
44,37.8,25.33,10.48,26.39
45,36.29,23.98,11.05,28.68
46,34.24,22.44,12.02,31.3
47,32.43,21.54,12.56,33.47
48,30.3,20.53,13.47,35.69
49,28.17,19.42,14.22,38.2
50,26.15,18.31,15.25,40.29
51,23.83,16.99,15.57,43.61
52,21.51,15.98,16.61,45.9
53,18.85,14.79,17.2,49.16
54,17.63,13.25,17.56,51.56
55,15.15,11.94,18.44,54.47
56,14.19,11.51,18.77,55.53
57,43.81,33.47,8.23,14.49
58,42.43,32.55,8.47,16.54
59,41.39,31.11,9.18,18.32
60,39.65,30.23,9.91,20.21
61,37.65,28.62,10.91,22.83
62,36.94,26.82,11.37,24.86
63,34.17,26.08,12.03,27.73
64,32.53,24.16,13.04,30.26
65,30.32,23.95,13.71,32.02
66,29.02,22.29,14.31,34.37
67,26.86,20.66,15.22,37.27
68,24.65,19.67,16.39,39.28
69,23.15,18.06,17.07,41.72
70,20.3,17.09,18.07,44.54
71,18.46,16.0,18.5,47.03
72,16.48,14.29,19.15,50.09
73,14.27,14.09,20.11,51.53
74,13.69,12.29,20.33,53.68
75,11.94,11.27,20.91,55.88
76,41.44,36.55,8.38,13.63
77,40.07,35.15,8.9,15.87
78,38.91,33.95,9.69,17.46
79,37.23,32.23,10.68,19.87
80,35.78,31.52,11.2,21.5
81,34.77,29.7,11.9,23.63
82,31.87,28.8,12.92,26.42
83,31.57,26.87,13.68,27.89
84,29.09,25.0,14.78,31.13
85,26.34,24.32,15.49,33.86
86,25.0,22.84,16.15,36.02
87,22.9,21.49,17.41,38.2
88,21.88,20.19,17.8,40.13
89,19.11,19.14,18.69,43.06
90,16.7,18.33,20.0,44.97
91,16.12,15.84,20.51,47.53
92,14.01,14.36,21.27,50.35
93,12.1,13.75,22.25,51.9
94,11.76,12.49,21.8,53.95
95,40.39,40.88,7.72,11.01
96,39.84,38.39,8.78,12.99
97,37.71,37.96,9.6,14.74
98,36.34,36.74,10.27,16.65
99,35.88,34.44,11.34,18.35
100,33.99,33.87,11.95,20.2
101,32.46,31.73,12.75,23.07
102,30.5,31.02,13.35,25.14
103,28.61,29.33,14.51,27.55
104,27.19,27.86,15.76,29.19
105,25.4,26.86,16.41,31.33
106,23.73,24.9,17.33,34.04
107,21.51,23.48,18.56,36.45
108,20.19,21.94,19.06,38.81
109,18.27,20.86,19.98,40.88
110,16.91,18.28,21.32,43.49
111,15.05,16.74,21.93,46.27
112,13.57,15.26,22.67,48.5
113,11.22,14.75,23.96,50.07
114,10.57,12.91,24.8,51.72
115,9.2,12.02,25.22,53.56
116,37.77,42.84,8.27,11.12
117,36.09,42.13,9.31,12.47
118,35.29,40.36,10.05,14.3
119,34.21,39.2,10.99,15.61
120,32.81,37.32,11.46,18.42
121,31.22,35.99,12.84,19.95
122,29.91,34.27,13.67,22.16
123,28.7,32.66,14.64,24.01
124,27.27,31.71,15.2,25.81
125,25.71,29.67,16.6,28.01
126,24.05,28.51,17.02,30.43
127,22.48,26.57,18.29,32.66
128,20.95,25.06,19.49,34.49
129,18.73,23.71,20.42,37.14
130,16.77,21.59,21.61,40.04
131,15.92,20.63,22.25,41.2
132,14.33,18.58,23.42,43.67
133,13.05,16.52,23.81,46.62
134,11.97,14.96,25.06,48.01
135,10.65,13.54,26.23,49.58
136,9.36,12.74,27.08,50.81
137,34.79,46.12,8.79,10.29
138,33.29,45.07,9.42,12.22
139,33.51,43.09,10.02,13.38
140,32.32,41.11,11.4,15.17
141,30.69,39.98,12.37,16.96
142,29.92,38.09,13.26,18.73
143,27.82,36.9,14.29,20.98
144,27.19,35.3,15.25,22.27
145,25.64,33.83,16.22,24.3
146,23.82,32.09,17.35,26.74
147,22.78,30.52,18.16,28.54
148,20.53,29.41,19.37,30.69
149,19.3,26.81,20.52,33.37
150,17.43,25.3,21.52,35.75
151,16.17,24.07,22.68,37.08
152,15.11,21.67,24.09,39.13
153,13.52,20.07,24.53,41.88
154,11.7,18.12,25.87,44.31
155,10.8,16.67,26.9,45.62
156,9.36,14.33,28.01,48.31
157,9.28,13.99,28.47,48.26
158,31.8,49.38,8.8,10.02
159,31.52,47.73,9.8,10.95
160,30.65,45.45,11.33,12.57
161,30.07,44.17,11.94,13.82
162,28.92,42.17,13.21,15.69
163,27.52,40.99,14.13,17.36
164,26.23,39.32,14.89,19.55
165,25.05,37.52,15.99,21.44
166,23.12,36.43,17.15,23.29
167,22.34,34.6,18.27,24.79
168,20.25,32.87,19.33,27.54
169,18.73,30.76,20.62,29.89
170,17.46,28.99,21.83,31.72
171,16.55,27.41,22.64,33.4
172,14.88,24.94,24.18,36.0
173,13.04,23.89,25.26,37.81
174,12.3,21.57,26.63,39.5
175,11.2,19.56,27.44,41.8
176,10.09,17.76,28.89,43.26
177,9.2,15.91,29.46,45.42
178,8.57,13.48,30.82,47.12
179,29.8,51.93,9.06,9.21
180,29.35,49.7,10.59,10.36
181,28.59,47.93,11.48,12.0
182,28.4,46.0,12.43,13.17
183,26.77,45.12,13.61,14.5
184,25.95,43.16,14.74,16.15
185,24.06,41.66,16.0,18.29
186,22.02,39.56,17.29,21.13
187,21.66,38.95,18.15,21.23
188,20.95,35.46,19.82,23.78
189,19.35,34.61,20.52,25.52
190,17.65,32.72,21.47,28.16
191,16.16,31.66,23.02,29.16
192,15.59,28.42,24.08,31.91
193,13.51,26.39,25.66,34.44
194,12.59,24.95,26.94,35.52
195,11.22,22.44,28.27,38.07
196,9.8,20.51,29.46,40.24
197,9.57,18.48,30.29,41.66
198,8.63,16.91,32.08,42.39
199,7.31,15.42,33.02,44.25
200,27.83,53.71,9.65,8.81
201,27.33,52.35,10.81,9.51
202,25.82,50.74,11.94,11.5
203,25.35,49.03,12.87,12.75
204,24.65,47.56,13.74,14.05
205,23.52,45.82,15.26,15.4
206,22.32,43.69,17.02,16.97
207,21.47,41.9,17.47,19.17
208,19.49,40.95,18.98,20.58
209,18.51,38.69,20.22,22.58
210,17.61,36.69,21.1,24.6
211,16.42,35.01,22.69,25.89
212,15.21,33.46,23.93,27.39
213,13.51,30.77,25.1,30.62
214,12.68,28.6,26.83,31.88
215,11.71,26.73,27.96,33.6
216,10.45,24.23,29.78,35.54
217,9.94,22.11,30.99,36.96
218,8.34,20.24,32.37,39.05
219,7.81,17.97,33.44,40.79
220,6.83,15.75,34.56,42.86
221,24.75,56.96,9.77,8.52
222,24.12,55.37,10.99,9.52
223,24.0,53.07,12.24,10.69
224,22.47,52.34,13.24,11.96
225,21.91,50.35,14.81,12.93
226,20.64,48.58,16.44,14.34
227,21.0,45.97,17.19,15.85
228,18.52,45.39,18.43,17.66
229,18.57,42.68,19.6,19.15
230,16.92,40.55,20.96,21.57
231,15.06,39.02,22.65,23.27
232,14.76,36.7,24.12,24.42
233,13.57,35.07,25.6,25.76
234,13.3,32.28,26.58,27.84
235,11.26,29.91,28.44,30.39
236,10.87,27.69,29.75,31.69
237,9.58,25.01,31.5,33.92
238,8.78,22.66,33.23,35.33
239,8.49,20.52,34.31,36.68
240,7.57,17.97,35.79,38.67
241,7.13,17.19,37.14,38.54
242,21.57,57.23,11.51,9.69
243,20.86,56.01,12.92,10.2
244,20.9,54.5,14.0,10.6
245,20.33,51.94,15.45,12.27
246,19.43,50.68,16.61,13.28
247,18.75,48.59,17.72,14.93
248,18.06,46.63,19.04,16.27
249,16.45,45.8,20.65,17.11
250,15.74,42.84,22.15,19.26
251,14.87,41.16,23.69,20.28
252,13.13,39.09,24.86,22.92
253,12.65,36.71,26.7,23.94
254,11.29,35.04,27.48,26.19
255,10.42,32.24,29.36,27.98
256,9.54,29.24,31.49,29.73
257,8.59,26.81,33.47,31.14
258,8.61,24.92,34.09,32.38
259,7.2,22.23,36.23,34.34
260,8.04,19.48,37.57,34.91
261,19.43,61.22,11.43,7.91
262,18.53,59.19,12.97,9.31
263,18.36,57.09,14.79,9.77
264,18.54,54.32,15.88,11.26
265,16.76,53.56,17.06,12.63
266,16.03,52.2,18.48,13.29
267,15.76,49.21,19.96,15.07
268,15.35,47.51,20.85,16.3
269,14.29,45.22,22.88,17.6
270,13.52,42.95,24.45,19.07
271,13.34,40.09,25.72,20.85
272,11.25,38.89,27.53,22.33
273,11.04,35.88,29.45,23.63
274,10.2,33.65,30.7,25.46
275,9.62,30.95,32.8,26.62
276,9.2,27.88,34.67,28.26
277,8.51,25.82,36.2,29.47
278,7.12,22.99,38.31,31.58
279,6.51,20.89,40.1,32.49
280,17.03,61.49,13.55,7.93
281,16.49,58.77,15.18,9.56
282,16.26,57.44,16.3,10.0
283,15.34,55.6,17.7,11.36
284,14.11,53.77,19.31,12.81
285,14.42,51.37,20.72,13.49
286,13.02,49.59,22.24,15.15
287,12.31,48.03,23.19,16.47
288,11.8,45.48,25.22,17.51
289,11.13,42.38,26.75,19.74
290,9.48,41.29,28.69,20.54
291,9.98,38.32,29.91,21.8
292,8.81,35.96,32.25,22.99
293,8.23,32.95,33.9,24.92
294,8.17,29.47,36.11,26.25
295,6.57,27.01,38.5,27.92
296,6.49,25.53,39.81,28.16
297,14.62,61.89,15.08,8.41
298,14.88,59.43,16.5,9.19
299,13.63,57.48,18.23,10.66
300,13.04,55.33,19.71,11.92
301,12.67,53.9,21.11,12.32
302,12.03,51.41,22.84,13.72
303,10.91,50.1,24.64,14.34
304,11.29,46.92,26.02,15.77
305,9.57,45.13,27.74,17.56
306,9.49,42.27,29.68,18.56
307,9.0,39.36,32.13,19.51
308,8.36,36.49,33.05,22.11
309,7.67,33.63,36.08,22.62
310,6.77,31.24,38.35,23.64
311,7.18,27.79,40.25,24.79
312,12.85,62.0,16.47,8.69
313,13.0,59.95,17.93,9.11
314,11.56,57.87,20.21,10.36
315,10.85,56.19,21.41,11.55
316,11.15,53.81,23.03,12.02
317,9.55,51.17,24.73,14.54
318,9.75,49.16,26.86,14.24
319,9.14,46.71,28.1,16.06
320,8.72,43.83,30.47,16.98
321,7.74,41.73,32.43,18.1
322,7.4,38.14,35.49,18.97
323,7.41,35.21,37.38,20.0
324,6.89,32.59,39.33,21.19
325,10.71,62.05,18.81,8.44
326,10.21,60.18,20.24,9.37
327,9.86,57.83,22.27,10.04
328,9.71,54.91,23.86,11.52
329,8.76,53.26,25.71,12.28
330,8.75,50.78,27.75,12.72
331,8.75,48.09,29.18,13.98
332,8.43,45.06,31.6,14.91
333,7.77,42.56,33.74,15.93
334,6.68,39.9,35.89,17.53
335,7.22,36.2,38.06,18.52
336,9.26,59.43,22.12,9.19
337,8.74,57.88,24.08,9.3
338,8.58,55.14,25.59,10.69
339,7.62,52.9,27.86,11.61
340,8.46,49.53,29.55,12.46
341,8.28,46.69,31.86,13.17
342,6.62,44.26,34.77,14.36