File: Burgel/15453660/Composition_Dataset/ML_7_Ru-rich_Ir-Pd-Pt-Ru_EDX.csv
Index,Ir,Pd,Pt,Ru
1,27.32,3.62,8.12,60.94
2,25.21,3.09,8.2,63.49
3,22.68,3.45,7.98,65.89
4,20.85,2.69,8.1,68.36
5,19.5,2.86,7.84,69.81
6,17.02,2.57,8.08,72.33
7,15.4,1.74,8.01,74.85
8,14.55,1.72,8.15,75.59
9,13.38,2.56,8.33,75.73
10,11.98,1.85,8.21,77.96
11,10.44,2.35,8.09,79.13
12,28.96,5.23,8.42,57.39
13,26.47,4.74,8.59,60.2
14,23.89,4.1,8.98,63.03
15,22.27,2.98,8.81,65.94
16,20.36,3.44,8.64,67.56
17,19.26,3.28,8.79,68.66
18,16.8,2.58,9.02,71.6
19,15.8,2.68,9.12,72.4
20,14.17,2.47,9.21,74.15
21,13.48,1.91,8.79,75.81
22,11.58,1.79,9.25,77.37
23,10.83,1.78,9.23,78.16
24,8.9,2.12,9.53,79.44
25,30.95,5.61,9.3,54.14
26,28.48,5.12,9.77,56.63
27,24.99,4.33,9.76,60.92
28,23.96,4.32,9.67,62.05
29,22.45,4.15,9.73,63.67
30,20.11,3.7,9.49,66.7
31,17.9,3.47,9.93,68.7
32,16.08,2.74,10.27,70.91
33,15.06,2.88,10.35,71.72
34,13.35,2.4,10.6,73.65
35,12.63,2.57,10.41,74.39
36,11.63,2.23,10.24,75.9
37,9.43,2.14,10.27,78.15
38,8.6,1.95,10.4,79.05
39,7.35,2.04,10.34,80.27
40,33.1,5.96,10.3,50.65
41,30.39,6.22,9.69,53.71
42,27.36,5.25,10.79,56.6
43,25.42,5.15,10.5,58.93
44,22.73,4.62,10.57,62.08
45,20.39,4.27,10.93,64.41
46,19.98,4.14,10.34,65.53
47,17.47,4.02,10.98,67.53
48,16.34,3.97,11.03,68.66
49,14.56,3.14,11.29,71.01
50,13.54,3.07,11.36,72.03
51,12.38,2.23,11.43,73.95
52,11.1,2.6,11.12,75.18
53,9.59,1.66,11.5,77.25
54,8.65,2.57,11.39,77.38
55,8.31,1.85,11.56,78.28
56,6.51,2.07,11.25,80.16
57,35.56,6.2,11.29,46.95
58,31.76,6.71,10.82,50.71
59,28.71,5.57,11.71,54.01
60,27.85,5.68,11.22,55.25
61,24.01,4.71,11.89,59.39
62,22.42,4.67,11.98,60.93
63,20.05,4.11,12.16,63.68
64,19.59,3.99,11.84,64.58
65,17.24,3.62,12.41,66.73
66,15.92,4.64,12.24,67.2
67,14.71,3.02,12.54,69.73
68,13.52,3.36,12.51,70.61
69,12.64,2.68,12.39,72.29
70,11.6,2.55,12.25,73.6
71,9.84,2.27,12.48,75.41
72,8.57,2.24,12.77,76.41
73,7.33,1.38,12.65,78.64
74,6.24,1.11,12.83,79.82
75,6.07,1.39,12.57,79.98
76,33.64,7.85,11.98,46.53
77,31.03,6.45,12.82,49.7
78,28.22,6.74,12.81,52.22
79,26.55,6.01,12.74,54.7
80,23.88,5.5,12.89,57.73
81,22.15,5.31,12.76,59.77
82,19.86,5.15,13.23,61.75
83,19.16,4.2,13.34,63.31
84,17.06,4.05,13.2,65.69
85,15.72,3.97,13.33,66.98
86,13.79,4.19,13.53,68.5
87,13.19,3.37,13.35,70.08
88,11.38,2.45,13.74,72.43
89,11.1,2.62,13.81,72.47
90,9.26,2.73,13.95,74.06
91,8.63,2.32,13.81,75.23
92,7.37,2.57,13.54,76.51
93,5.55,2.39,14.0,78.06
94,5.61,1.52,14.0,78.87
95,36.43,8.62,12.14,42.81
96,32.31,8.62,13.7,45.38
97,29.94,7.33,13.48,49.25
98,28.58,7.09,13.42,50.92
99,25.66,5.97,13.92,54.45
100,23.51,5.56,14.06,56.86
101,21.35,5.46,14.16,59.03
102,18.95,5.49,14.43,61.13
103,17.85,4.9,14.52,62.72
104,16.1,4.36,15.05,64.5
105,15.75,4.04,14.33,65.88
106,14.04,3.47,14.94,67.56
107,12.81,3.6,14.76,68.83
108,11.12,2.87,15.05,70.96
109,9.93,2.76,15.12,72.19
110,9.03,2.31,15.24,73.41
111,8.24,2.04,15.09,74.63
112,7.01,2.39,15.11,75.49
113,6.43,2.07,15.27,76.22
114,5.13,1.96,15.11,77.81
115,4.34,1.66,15.43,78.57
116,33.8,9.04,14.19,42.97
117,31.25,9.09,14.58,45.08
118,28.59,8.5,14.96,47.95
119,26.63,8.51,15.22,49.64
120,25.0,6.22,15.51,53.28
121,22.21,6.96,15.59,55.23
122,20.55,6.1,15.93,57.42
123,18.88,5.39,16.12,59.61
124,16.79,5.7,16.22,61.29
125,16.48,4.49,15.61,63.42
126,14.66,4.51,16.2,64.64
127,13.7,4.29,15.97,66.05
128,11.93,3.24,16.5,68.33
129,10.55,3.0,16.58,69.88
130,9.75,2.91,16.7,70.64
131,8.52,2.53,16.41,72.54
132,8.07,2.84,16.29,72.8
133,7.21,3.12,16.21,73.45
134,6.69,1.94,16.42,74.95
135,5.5,2.28,16.39,75.83
136,5.07,1.16,16.68,77.1
137,32.02,10.08,15.89,42.02
138,30.15,9.89,16.15,43.81
139,27.56,9.26,16.31,46.87
140,25.6,7.93,17.33,49.14
141,23.27,7.9,17.47,51.35
142,21.73,7.38,17.19,53.69
143,20.4,6.43,17.05,56.12
144,18.53,6.16,17.28,58.03
145,16.67,6.27,17.0,60.07
146,14.91,4.85,17.42,62.82
147,14.15,5.33,17.69,62.83
148,13.05,3.71,17.57,65.66
149,11.96,3.98,17.51,66.55
150,10.93,3.53,17.61,67.93
151,9.58,3.19,17.98,69.24
152,8.85,3.27,17.7,70.18
153,7.37,2.65,18.42,71.56
154,6.27,2.99,18.45,72.28
155,5.37,2.28,18.38,73.97
156,5.26,1.86,18.41,74.48
157,4.5,2.34,17.93,75.22
158,31.65,11.1,16.81,40.44
159,29.61,10.43,17.94,42.01
160,27.42,9.24,17.99,45.35
161,25.09,8.49,18.55,47.88
162,23.33,7.53,18.55,50.59
163,20.96,7.69,18.51,52.84
164,18.82,6.81,18.99,55.38
165,18.09,6.75,18.63,56.53
166,16.33,5.64,18.98,59.06
167,15.13,5.44,19.17,60.26
168,13.98,5.15,18.85,62.03
169,12.36,4.9,19.04,63.7
170,10.92,4.81,19.16,65.11
171,10.19,3.92,19.53,66.35
172,8.15,3.51,19.78,68.56
173,8.04,3.01,19.5,69.45
174,7.2,2.64,19.93,70.23
175,6.18,2.47,19.81,71.54
176,5.66,3.3,19.72,71.32
177,5.11,1.91,20.33,72.65
178,4.29,2.05,20.13,73.53
179,29.81,11.73,18.61,39.86
180,28.63,10.32,19.19,41.86
181,26.02,10.14,19.76,44.07
182,24.01,9.15,20.09,46.76
183,22.41,8.58,20.31,48.69
184,20.61,7.56,20.39,51.44
185,18.82,7.19,20.61,53.38
186,17.16,6.95,20.59,55.3
187,15.52,6.36,20.98,57.14
188,14.35,6.32,20.55,58.77
189,13.35,4.92,20.7,61.03
190,12.06,4.65,20.91,62.38
191,10.33,5.01,20.97,63.69
192,9.46,4.69,21.15,64.71
193,8.84,3.8,21.2,66.16
194,7.6,2.74,21.68,67.98
195,6.5,3.49,21.28,68.74
196,6.46,2.91,21.42,69.2
197,4.69,2.56,22.15,70.6
198,4.67,2.02,21.91,71.41
199,4.03,1.62,22.12,72.23
200,29.26,13.22,19.11,38.41
201,26.43,11.53,21.11,40.93
202,25.3,10.89,21.15,42.65
203,23.13,9.89,21.9,45.08
204,21.55,8.91,22.47,47.07
205,19.39,8.65,22.28,49.68
206,19.01,7.15,22.47,51.37
207,17.6,6.99,22.3,53.12
208,15.75,6.53,22.17,55.54
209,14.22,5.87,22.54,57.37
210,12.64,5.15,22.64,59.58
211,12.11,5.21,22.47,60.21
212,10.67,4.63,22.79,61.9
213,9.54,4.66,22.91,62.89
214,7.75,4.69,23.35,64.2
215,7.15,3.59,23.49,65.77
216,7.19,3.4,22.92,66.49
217,6.04,3.44,23.23,67.29
218,5.06,2.09,23.68,69.18
219,4.63,2.2,23.73,69.44
220,4.05,1.77,24.38,69.8
221,26.61,13.92,22.11,37.36
222,25.02,12.87,22.38,39.72
223,23.83,11.72,23.24,41.21
224,22.16,10.4,24.43,43.01
225,20.31,9.52,24.29,45.87
226,18.12,9.37,24.82,47.7
227,16.55,9.32,24.65,49.48
228,16.1,7.47,24.43,52.0
229,13.92,7.59,24.52,53.97
230,12.93,6.63,25.12,55.32
231,12.6,5.06,24.79,57.55
232,10.75,6.03,24.78,58.44
233,9.95,5.05,25.01,59.99
234,8.35,5.18,25.35,61.12
235,7.53,4.48,25.09,62.9
236,6.6,4.03,25.78,63.59
237,6.47,3.94,25.19,64.4
238,6.01,2.96,25.71,65.32
239,4.63,2.76,26.33,66.28
240,4.1,2.26,26.08,67.56
241,3.74,2.01,26.63,67.62
242,23.01,14.22,24.57,38.21
243,22.9,11.76,25.65,39.69
244,19.99,12.02,25.62,42.38
245,19.32,10.28,26.42,43.98
246,17.27,9.41,26.62,46.7
247,17.8,8.53,26.38,47.29
248,15.97,7.92,26.57,49.53
249,13.43,8.2,27.07,51.3
250,11.74,7.32,27.68,53.27
251,11.03,6.34,27.2,55.44
252,10.09,5.93,27.29,56.7
253,8.47,5.66,27.61,58.26
254,8.11,5.54,27.33,59.02
255,7.11,4.78,27.46,60.65
256,6.63,3.62,28.17,61.58
257,6.08,3.6,27.93,62.39
258,5.32,3.09,28.29,63.3
259,4.41,3.5,28.92,63.17
260,4.02,2.83,28.85,64.3
261,22.13,14.51,25.78,37.58
262,21.31,13.79,26.53,38.37
263,18.84,11.55,27.74,41.87
264,18.53,11.12,28.5,41.85
265,16.53,10.74,28.37,44.35
266,15.61,9.09,29.82,45.48
267,14.05,9.74,28.47,47.75
268,12.51,8.37,29.45,49.67
269,10.94,6.62,29.61,52.83
270,10.92,6.8,29.74,52.54
271,9.5,6.67,29.93,53.9
272,8.26,5.82,29.73,56.19
273,8.04,5.09,30.08,56.78
274,6.57,4.56,30.31,58.56
275,6.77,4.43,30.35,58.44
276,5.2,3.66,30.86,60.28
277,4.54,3.4,31.01,61.06
278,4.48,2.89,31.31,61.32
279,3.09,2.48,32.68,61.75
280,16.2,15.34,29.82,38.64
281,16.52,14.39,30.17,38.92
282,16.74,12.09,31.33,39.84
283,15.22,11.14,31.49,42.15
284,12.93,10.78,32.35,43.94
285,12.57,10.07,32.02,45.34
286,11.97,8.87,31.52,47.64
287,10.81,8.25,32.47,48.47
288,9.66,8.11,32.23,50.0
289,9.15,6.54,32.77,51.55
290,7.77,6.05,33.5,52.68
291,7.61,4.76,33.2,54.43
292,6.71,4.61,33.64,55.04
293,5.18,4.12,33.46,57.24
294,5.34,3.27,34.13,57.25
295,6.12,2.9,33.88,57.1
296,4.07,2.9,35.11,57.92
297,15.99,13.41,31.53,39.08
298,14.43,12.85,32.89,39.83
299,14.35,12.57,32.97,40.11
300,12.89,10.29,34.16,42.67
301,11.85,10.81,34.2,43.14
302,10.84,9.59,34.34,45.23
303,9.47,9.11,34.86,46.56
304,8.44,8.09,36.2,47.26
305,8.27,7.63,35.42,48.68
306,8.24,6.65,35.76,49.36
307,7.53,5.8,35.07,51.61
308,6.13,4.77,36.88,52.22
309,5.83,5.03,36.38,52.76
310,4.76,4.95,36.72,53.57
311,3.8,3.72,37.59,54.89
312,14.41,13.94,34.48,37.17
313,12.23,13.17,35.43,39.17
314,11.52,12.22,36.38,39.89
315,10.98,10.63,37.26,41.13
316,10.4,10.08,37.37,42.14
317,9.33,9.28,37.39,44.0
318,8.71,9.06,38.15,44.08
319,7.57,7.72,38.12,46.58
320,7.32,7.36,38.37,46.94
321,7.19,5.71,39.03,48.08
322,5.73,4.81,39.43,50.02
323,5.46,5.16,40.36,49.01
324,4.83,3.89,40.79,50.49
325,11.73,14.44,38.15,35.68
326,10.98,12.83,38.65,37.54
327,10.83,12.27,38.67,38.24
328,8.92,10.27,40.82,39.99
329,8.88,9.37,40.23,41.52
330,7.61,8.98,40.74,42.67
331,8.57,7.63,40.71,43.09
332,6.68,8.32,41.12,43.88
333,6.26,6.16,41.51,46.07
334,5.54,6.06,43.34,45.06
335,5.23,5.04,43.67,46.06
336,8.55,12.6,42.64,36.21
337,9.23,10.57,42.29,37.91
338,7.6,10.41,43.16,38.83
339,6.46,9.94,43.66,39.94
340,7.52,8.03,43.85,40.6
341,6.58,6.64,44.99,41.79
342,5.54,6.45,46.48,41.52