File: Burgel/15453660/Composition_Dataset/ML_8_Pt-rich_Ir-Pd-Pt-Ru_EDX.csv
Index,Ir,Pd,Pt,Ru
1,35.96,3.2,47.59,13.25
2,33.8,3.63,49.18,13.38
3,31.03,3.55,50.07,15.35
4,29.58,3.2,52.38,14.85
5,27.21,2.65,53.85,16.29
6,24.49,3.09,54.57,17.85
7,22.29,2.34,56.57,18.8
8,21.4,2.13,57.16,19.3
9,18.98,2.11,58.5,20.4
10,18.45,2.44,58.82,20.29
11,16.7,0.96,61.13,21.22
12,34.39,4.66,49.35,11.6
13,33.95,3.96,49.67,12.43
14,30.57,3.12,52.27,14.05
15,29.13,3.71,52.13,15.03
16,26.44,3.44,54.63,15.49
17,24.16,3.07,56.06,16.71
18,23.09,2.82,57.05,17.04
19,22.01,2.72,58.82,16.45
20,19.5,2.81,58.98,18.71
21,18.65,1.75,60.4,19.2
22,16.1,2.56,61.04,20.3
23,15.4,1.72,62.42,20.46
24,13.2,1.7,63.76,21.33
25,34.46,5.64,49.93,9.97
26,33.22,4.13,51.85,10.81
27,29.74,4.33,53.84,12.09
28,27.76,4.28,54.75,13.21
29,26.43,3.43,56.53,13.61
30,24.21,2.96,59.09,13.74
31,22.92,3.5,58.63,14.96
32,22.15,2.55,60.08,15.23
33,19.56,2.42,62.05,15.97
34,18.95,2.22,62.07,16.77
35,17.42,2.55,62.89,17.15
36,15.02,2.15,64.76,18.07
37,13.51,2.43,65.22,18.84
38,12.04,1.48,66.87,19.61
39,10.83,1.77,66.79,20.62
40,34.34,6.0,51.33,8.33
41,32.24,5.57,52.62,9.57
42,30.6,3.92,55.0,10.48
43,28.12,4.07,57.25,10.56
44,26.48,3.6,57.72,12.2
45,23.97,3.41,59.75,12.87
46,22.6,3.19,60.53,13.68
47,20.52,2.92,62.48,14.08
48,20.13,3.07,62.2,14.6
49,18.08,2.72,64.44,14.76
50,16.24,2.11,65.63,16.02
51,15.99,1.33,65.99,16.69
52,14.31,2.26,67.0,16.43
53,12.64,1.83,68.78,16.75
54,11.82,1.88,68.54,17.75
55,9.74,1.26,69.51,19.5
56,8.05,1.07,71.15,19.73
57,33.77,5.46,52.51,8.27
58,31.4,5.62,54.3,8.68
59,29.86,5.63,54.89,9.62
60,27.2,4.12,58.46,10.22
61,25.32,4.47,59.25,10.96
62,24.07,4.38,60.52,11.03
63,22.68,3.95,61.55,11.81
64,21.79,3.52,62.15,12.55
65,18.8,3.13,64.75,13.32
66,17.92,2.75,65.87,13.46
67,16.46,2.6,66.33,14.61
68,15.43,2.76,67.39,14.41
69,14.65,1.27,69.16,14.92
70,13.16,2.01,68.99,15.84
71,12.43,1.82,69.13,16.62
72,10.64,2.4,70.35,16.62
73,9.5,1.64,72.4,16.46
74,8.02,1.8,72.21,17.97
75,7.78,0.93,73.43,17.85
76,31.43,5.76,55.06,7.75
77,28.26,6.12,56.75,8.87
78,27.98,5.36,58.38,8.28
79,26.97,4.83,58.63,9.58
80,23.38,3.94,62.26,10.42
81,22.04,4.25,63.37,10.34
82,21.09,3.26,64.67,10.98
83,20.32,3.13,65.41,11.13
84,18.26,2.87,67.09,11.77
85,15.93,3.59,67.79,12.69
86,14.65,2.54,69.03,13.78
87,13.39,2.07,70.72,13.81
88,12.74,2.24,70.88,14.13
89,12.52,1.94,71.34,14.2
90,10.39,2.12,72.69,14.81
91,9.42,2.04,73.41,15.13
92,8.8,0.99,74.55,15.65
93,7.7,1.22,75.82,15.26
94,7.23,2.03,74.26,16.47
95,30.11,5.99,57.01,6.89
96,28.92,6.59,57.34,7.15
97,27.2,5.95,59.01,7.84
98,24.44,5.29,61.72,8.55
99,23.64,5.19,63.45,7.72
100,22.81,4.45,63.56,9.18
101,19.85,4.29,66.28,9.58
102,19.16,3.87,66.65,10.32
103,17.82,3.93,67.98,10.26
104,16.61,3.34,68.78,11.27
105,14.83,3.11,70.38,11.68
106,14.46,2.57,70.88,12.09
107,13.5,2.57,70.86,13.07
108,12.31,2.12,72.43,13.13
109,11.05,2.08,73.75,13.12
110,10.02,1.63,74.28,14.07
111,8.2,1.71,75.33,14.75
112,7.33,1.39,77.11,14.18
113,6.52,1.33,77.2,14.94
114,5.45,0.5,79.11,14.94
115,4.29,-0.24,78.78,17.17
116,28.76,6.4,58.91,5.94
117,27.67,7.0,58.86,6.47
118,25.11,6.18,61.29,7.42
119,23.2,5.9,62.85,8.05
120,21.52,5.15,65.21,8.12
121,19.69,5.36,65.05,9.9
122,18.88,3.9,68.62,8.6
123,16.92,4.38,69.01,9.69
124,16.56,3.83,69.59,10.02
125,16.06,3.35,70.18,10.4
126,14.33,3.35,71.94,10.38
127,13.69,2.01,73.15,11.15
128,11.7,2.89,73.33,12.08
129,11.18,2.2,74.99,11.64
130,10.02,2.09,75.87,12.03
131,8.71,1.75,76.15,13.39
132,8.36,1.31,77.23,13.1
133,7.71,1.07,78.07,13.15
134,7.17,1.7,77.6,13.54
135,4.91,1.11,80.17,13.81
136,4.99,1.1,80.14,13.77
137,27.61,7.14,59.9,5.35
138,25.01,5.47,63.96,5.55
139,23.09,6.21,63.89,6.8
140,21.0,5.74,65.45,7.81
141,19.81,5.86,65.99,8.33
142,18.18,5.09,68.48,8.25
143,17.39,4.13,70.0,8.48
144,16.52,4.45,71.02,8.01
145,15.79,3.76,71.36,9.1
146,13.67,2.72,73.79,9.81
147,12.97,2.56,73.76,10.7
148,12.17,2.88,74.37,10.58
149,10.53,2.38,76.4,10.69
150,9.85,2.49,76.92,10.74
151,9.42,2.11,77.5,10.97
152,7.6,1.63,78.98,11.79
153,6.91,1.19,80.3,11.6
154,7.08,1.73,79.76,11.43
155,5.2,1.42,80.43,12.95
156,4.51,1.05,80.99,13.45
157,4.48,0.75,81.12,13.64
158,25.19,6.99,61.61,6.21
159,22.39,6.64,64.41,6.56
160,22.28,6.07,65.27,6.37
161,19.62,6.11,67.51,6.76
162,18.89,5.52,68.32,7.27
163,17.07,4.93,70.52,7.48
164,16.05,4.75,71.9,7.3
165,15.0,4.14,72.05,8.8
166,13.99,4.14,72.84,9.04
167,12.54,4.13,74.0,9.33
168,12.25,2.67,75.71,9.36
169,10.86,2.56,76.85,9.73
170,9.65,2.53,77.79,10.04
171,9.11,2.31,78.97,9.61
172,8.0,2.08,79.06,10.85
173,6.93,1.62,80.3,11.15
174,6.32,1.33,81.33,11.02
175,4.93,1.54,82.53,11.0
176,4.4,1.26,82.54,11.8
177,4.0,1.23,83.04,11.73
178,3.76,1.56,82.77,11.92
179,22.52,7.61,65.08,4.79
180,20.69,7.25,66.14,5.92
181,19.53,6.71,67.5,6.25
182,18.54,5.73,69.12,6.61
183,16.23,5.36,71.43,6.99
184,16.2,4.49,72.58,6.73
185,14.46,4.68,73.61,7.26
186,13.8,3.76,74.25,8.19
187,12.21,4.06,75.6,8.13
188,11.68,3.1,76.99,8.23
189,10.63,3.3,77.22,8.85
190,9.63,2.85,77.8,9.72
191,8.29,3.08,78.92,9.71
192,8.23,2.43,79.71,9.63
193,7.29,1.81,80.62,10.28
194,5.5,1.84,82.38,10.29
195,4.98,1.5,83.68,9.84
196,5.34,1.13,83.49,10.05
197,4.13,1.65,83.39,10.83
198,4.22,1.2,84.47,10.1
199,2.94,0.45,85.73,10.88
200,20.71,7.7,67.21,4.39
201,21.25,6.29,67.25,5.21
202,17.59,6.21,71.17,5.04
203,17.2,6.33,71.05,5.42
204,14.38,5.92,73.35,6.35
205,15.16,5.01,74.6,5.23
206,11.92,4.64,76.63,6.81
207,12.37,3.89,77.38,6.36
208,11.37,3.64,77.48,7.5
209,10.57,3.51,78.37,7.55
210,10.27,3.1,79.45,7.17
211,8.47,2.78,80.48,8.27
212,7.51,2.7,81.06,8.73
213,7.59,2.23,81.39,8.79
214,6.08,2.09,82.72,9.11
215,5.89,1.35,83.29,9.47
216,5.16,1.06,84.12,9.66
217,4.89,1.46,84.21,9.44
218,3.25,1.33,85.95,9.48
219,3.05,0.7,86.46,9.79
220,3.53,0.57,85.83,10.07
221,18.88,8.2,68.67,4.25
222,17.74,7.47,70.56,4.23
223,15.58,7.07,71.77,5.58
224,14.67,6.38,73.79,5.16
225,13.29,5.41,75.61,5.69
226,12.88,4.76,76.82,5.55
227,11.66,5.03,76.98,6.32
228,10.23,4.62,79.06,6.1
229,9.6,3.81,80.37,6.22
230,9.0,4.08,79.44,7.48
231,8.19,3.39,81.08,7.34
232,7.62,3.19,81.62,7.57
233,7.63,2.48,82.09,7.8
234,6.29,1.88,83.94,7.89
235,6.11,2.12,83.9,7.88
236,5.06,1.8,84.76,8.39
237,4.64,1.3,86.05,8.02
238,4.06,1.68,85.93,8.32
239,4.02,1.53,85.75,8.7
240,4.34,1.12,86.16,8.38
241,3.08,1.01,87.3,8.61
242,15.08,7.06,72.97,4.89
243,14.45,6.5,74.76,4.28
244,13.24,6.45,75.36,4.95
245,12.17,5.82,77.17,4.84
246,11.18,5.25,78.82,4.75
247,9.87,4.38,80.27,5.49
248,9.88,4.07,79.79,6.26
249,8.43,3.65,81.72,6.2
250,7.8,3.85,81.96,6.39
251,7.14,3.1,83.72,6.05
252,6.8,3.06,83.16,6.98
253,6.11,2.94,84.56,6.38
254,5.54,1.63,85.72,7.11
255,5.05,2.36,85.57,7.01
256,4.55,1.84,85.79,7.82
257,3.77,1.19,87.62,7.41
258,3.32,0.99,87.73,7.96
259,3.51,1.02,87.99,7.48
260,3.82,1.47,86.97,7.75
261,13.87,7.42,74.76,3.96
262,13.22,6.33,75.77,4.68
263,11.94,6.18,77.68,4.19
264,11.25,5.97,78.54,4.24
265,9.88,5.3,79.65,5.16
266,8.91,4.44,81.57,5.08
267,8.62,4.13,81.76,5.5
268,8.29,4.21,82.47,5.02
269,7.49,3.96,82.04,6.5
270,6.74,3.38,84.19,5.69
271,4.96,3.53,85.59,5.92
272,5.59,2.7,85.99,5.72
273,4.41,2.37,86.85,6.38
274,4.87,1.42,87.53,6.18
275,4.49,1.45,87.33,6.73
276,3.25,1.53,88.49,6.73
277,2.6,1.28,89.02,7.1
278,2.37,1.07,89.25,7.3
279,1.82,1.33,90.35,6.49
280,11.0,6.95,78.39,3.67
281,10.06,7.2,78.58,4.16
282,9.61,6.18,80.21,4.0
283,9.45,5.44,80.55,4.56
284,8.34,5.04,82.48,4.15
285,7.71,4.55,82.58,5.16
286,7.41,4.67,82.91,5.01
287,7.36,3.26,84.53,4.85
288,5.44,2.95,86.93,4.68
289,4.57,3.2,86.18,6.05
290,5.12,2.37,86.89,5.62
291,4.46,2.5,87.49,5.55
292,3.79,1.92,88.66,5.63
293,3.85,1.67,88.26,6.21
294,3.39,2.11,88.37,6.13
295,2.73,1.62,89.51,6.14
296,2.94,0.86,90.96,5.25
297,8.77,7.3,80.3,3.63
298,8.18,5.5,82.24,4.07
299,7.76,5.02,82.7,4.52
300,7.18,5.36,83.36,4.1
301,6.62,4.45,84.27,4.66
302,6.44,4.48,84.75,4.32
303,4.93,3.53,86.67,4.87
304,5.3,3.6,86.2,4.9
305,5.4,2.86,87.73,4.02
306,4.19,3.09,87.66,5.05
307,4.6,2.72,87.91,4.78
308,2.84,2.04,90.6,4.52
309,3.02,1.3,90.67,5.0
310,2.42,0.72,91.3,5.55
311,2.63,1.22,90.82,5.33
312,7.75,6.43,82.0,3.81
313,7.53,5.34,83.08,4.04
314,6.83,4.69,84.84,3.65
315,5.37,5.17,85.46,4.0
316,4.84,4.32,86.67,4.16
317,4.22,3.75,87.81,4.22
318,4.24,2.85,88.77,4.15
319,3.74,3.36,88.67,4.22
320,3.67,2.5,89.82,4.01
321,2.74,2.77,89.82,4.68
322,3.22,2.02,90.09,4.67
323,2.05,1.12,92.21,4.61
324,3.44,1.16,91.02,4.38
325,4.62,5.92,85.99,3.48
326,5.09,4.92,87.06,2.93
327,5.23,4.13,86.81,3.83
328,4.74,3.49,88.19,3.58
329,4.21,3.86,88.36,3.57
330,3.27,3.57,89.11,4.05
331,3.33,2.86,89.93,3.88
332,3.99,2.08,89.37,4.56
333,2.91,2.18,91.12,3.79
334,2.71,1.57,91.42,4.3
335,2.86,2.15,91.08,3.91
336,4.27,4.3,88.5,2.92
337,3.82,3.64,89.37,3.17
338,3.6,4.48,88.2,3.71
339,3.32,3.02,89.69,3.97
340,3.26,3.42,90.59,2.74
341,3.2,2.31,91.07,3.41
342,2.85,1.79,91.89,3.47